onset	duration	trial_type	choice_RT	partner_RT	points	trialn
4.816154520996406	0.5467458706962134	partner-social_choice-choice_pentagon	0.5467458706962134			1
8.797344051524307	1.5	partner-social_feedback-informative			54.0	2
12.282147899775284	0.9726151482095702	partner-social_feedback-partner		0.9726151482095702		3
17.299606405608756	1.5	partner-social_feedback-affective				4
21.298968638612227	0.6315564476817599	partner-non_social_choice-choice_pentagon	0.6315564476817599			5
28.281676522677568	1.5	partner-non_social_feedback-informative			53.0	6
32.78174838117229	1.2394635882219518	partner-non_social_feedback-partner		1.2394635882219518		7
38.78184346111448	1.5	partner-non_social_feedback-affective				8
44.298548824098816	0.5104205788097715	partner-social_choice-choice_pentagon	0.5104205788097715			9
51.281023762305715	1.5	partner-social_feedback-informative			51.0	10
54.78088754200417	1.646668673097338	partner-social_feedback-partner		1.646668673097338		11
62.78106343989703	1.5	partner-social_feedback-affective				12
		partner-non_social_choice-choice_pentagon_catch	0.0			13
0.0	1.5	partner-non_social_feedback-informative_catch			30.0	14
66.04747707202023	1.8248634780024984	partner-non_social_feedback-partner_catch		1.8248634780024984		15
71.04774549001057	1.5	partner-non_social_feedback-affective_catch				16
82.54716202828922	0.7828509428090911	partner-social_choice-choice_pentagon	0.7828509428090911			17
86.52997706013548	1.5	partner-social_feedback-informative			45.0	18
90.02972381836662	0.9711490886406864	partner-social_feedback-partner		0.9711490886406864		19
98.03011986289448	1.5	partner-social_feedback-affective				20
102.04643082696477	3.0	partner-social_choice-choice_star_lapse	0.9449936936402992			21
106.02921477498377	1.5	partner-social_feedback-informative_lapse			0.0	22
109.5293052837751	3.0	partner-social_feedback-partner_lapse		0.0		23
0.0	1.5	partner-social_feedback-affective_lapse				24
120.29584855374243	1.0450916625495663	partner-non_social_choice-choice_pentagon	1.0450916625495663			25
124.2788369236373	1.5	partner-non_social_feedback-informative			36.0	26
127.77855076958029	1.7442430009277814	partner-non_social_feedback-partner		1.7442430009277814		27
132.79566771900636	1.5	partner-non_social_feedback-affective				28
137.54523007700345	0.7493495252037974	partner-social_choice-choice_pentagon	0.7493495252037974			29
142.52823636581024	1.5	partner-social_feedback-informative			49.0	30
146.0280394406227	1.7064721282290518	partner-social_feedback-partner		1.7064721282290518		31
151.04488980051838	1.5	partner-social_feedback-affective				32
155.04499365707082	0.4562396394858297	partner-social_choice-choice_pentagon	0.4562396394858297			33
160.02770410098037	1.5	partner-social_feedback-informative			49.0	34
164.52746402412689	1.1925445623232918	partner-social_feedback-partner		1.1925445623232918		35
170.54464423828313	1.5	partner-social_feedback-affective				36
175.29480084591887	0.7738684481232667	partner-non_social_choice-choice_pentagon	0.7738684481232667			37
180.27688741913155	1.5	partner-non_social_feedback-informative			46.0	38
183.77678520819381	1.6716834744843254	partner-non_social_feedback-partner		1.6716834744843254		39
191.79434793627118	1.5	partner-non_social_feedback-affective				40
196.54342355810329	3.0	partner-non_social_choice-choice_star_lapse	0.0			41
0.0	1.5	partner-non_social_feedback-informative_lapse			0.0	42
0.0	3.0	partner-non_social_feedback-partner_lapse		0.0		43
0.0	1.5	partner-non_social_feedback-affective_lapse				44
217.8094780805991	0.7521752279449174	partner-non_social_choice-choice_pentagon	0.7521752279449174			45
221.7922923810611	1.5	partner-non_social_feedback-informative			47.0	46
225.2920362137556	2.5964350141393884	partner-non_social_feedback-partner		2.5964350141393884		47
231.29266776398663	1.5	partner-non_social_feedback-affective				48
236.8086742893961	0.6324750661992766	partner-non_social_choice-choice_pentagon	0.6324750661992766			49
243.7917405517046	1.5	partner-non_social_feedback-informative			43.0	50
250.29124961008077	1.4495606392442824	partner-non_social_feedback-partner		1.4495606392442824		51
255.2916149364737	1.5	partner-non_social_feedback-affective				52
259.30816433178325	1.0752499231130062	partner-non_social_choice-choice_pentagon	1.0752499231130062			53
263.29436494095347	1.5	partner-non_social_feedback-informative			46.0	54
0.0	0.0	partner-non_social_feedback-partner		0.0		55
0.0	1.5	partner-non_social_feedback-affective				56
276.05762393030454	1.0027781627704826	partner-non_social_choice-choice_pentagon	1.0027781627704826			57
280.0403387625197	1.5	partner-non_social_feedback-informative			42.0	58
286.54023033481644	1.0617357721093867	partner-non_social_feedback-partner		1.0617357721093867		59
292.5405729883	1.5	partner-non_social_feedback-affective				60
296.55688029544984	3.0	partner-social_choice-choice_star_lapse	0.0			61
0.0	1.5	partner-social_feedback-informative_lapse			0.0	62
0.0	3.0	partner-social_feedback-partner_lapse		0.0		63
0.0	1.5	partner-social_feedback-affective_lapse				64
321.5560593167188	0.7288791793575911	partner-social_choice-choice_pentagon	0.7288791793575911			65
326.53890945500507	1.5	partner-social_feedback-informative			46.0	66
330.0387205750435	1.8370578462709093	partner-social_feedback-partner		1.8370578462709093		67
335.0389582748985	1.5	partner-social_feedback-affective				68
0.0	3.0	partner-social_choice-choice_star_lapse	0.0			69
0.0	1.5	partner-social_feedback-informative_lapse			0.0	70
338.2885672586367	3.0	partner-social_feedback-partner_lapse		0.0		71
0.0	1.5	partner-social_feedback-affective_lapse				72
348.05526667912454	0.5650235268003598	partner-non_social_choice-choice_pentagon	0.5650235268003598			73
353.0381332735546	1.5	partner-non_social_feedback-informative			48.0	74
359.5383481176545	1.4137275689045057	partner-non_social_feedback-partner		1.4137275689045057		75
365.554719055227	1.5	partner-non_social_feedback-affective				76
369.5545592477856	0.6811684300951129	partner-non_social_choice-choice_pentagon	0.6811684300951129			77
376.5375289673839	1.5	partner-non_social_feedback-informative			53.0	78
0.0	0.0	partner-non_social_feedback-partner		0.0		79
0.0	1.5	partner-non_social_feedback-affective				80
389.0539293431693	0.6153796926064388	partner-social_choice-choice_pentagon	0.6153796926064388			81
393.03668440151336	1.5	partner-social_feedback-informative			57.0	82
396.53704296260315	1.536891931772061	partner-social_feedback-partner		1.536891931772061		83
401.55387064958944	1.5	partner-social_feedback-affective				84
407.05323050559485	0.5015726588117104	partner-social_choice-choice_pentagon	0.5015726588117104			85
412.0361757238234	1.5	partner-social_feedback-informative			56.0	86
415.53615396514436	1.0654917955152996	partner-social_feedback-partner		1.0654917955152996		87
420.55307600068863	1.5	partner-social_feedback-affective				88
424.55273517566553	3.0	partner-social_choice-choice_star_lapse	0.0			89
0.0	1.5	partner-social_feedback-informative_lapse			0.0	90
0.0	3.0	partner-social_feedback-partner_lapse		0.0		91
0.0	1.5	partner-social_feedback-affective_lapse				92
441.0524808368205	3.0	partner-non_social_choice-choice_star_lapse	0.6183966523085473			93
448.05190816301496	1.5	partner-non_social_feedback-informative_lapse			0.0	94
451.53485612393433	3.0	partner-non_social_feedback-partner_lapse		0.0		95
0.0	1.5	partner-non_social_feedback-affective_lapse				96
460.5682982994217	0.4941831188489232	partner-social_choice-choice_pentagon	0.4941831188489232			97
465.55120256013697	1.5	partner-social_feedback-informative			56.0	98
469.05101953124864	2.4721472451865343	partner-social_feedback-partner		2.4721472451865343		99
477.05124333480455	1.5	partner-social_feedback-affective				100
481.81758510843287	1.7102983645154382	partner-social_choice-choice_pentagon	1.7102983645154382			101
486.80045682255235	1.5	partner-social_feedback-informative			36.0	102
491.3002211340036	1.357499485288372	partner-social_feedback-partner		1.357499485288372		103
499.3004368923339	1.5	partner-social_feedback-affective				104
503.3168626837192	0.5306711437128797	partner-social_choice-choice_pentagon	0.5306711437128797			105
507.2998181413259	1.5	partner-social_feedback-informative			55.0	106
511.7996007373813	1.5606652085302812	partner-social_feedback-partner		1.5606652085302812		107
517.800046516033	1.5	partner-social_feedback-affective				108
521.8164434177434	0.7934113988417266	partner-social_choice-choice_pentagon	0.7934113988417266			109
525.7994855443744	1.5	partner-social_feedback-informative			54.0	110
529.2989814378352	1.0317161088460125	partner-social_feedback-partner		1.0317161088460125		111
534.299465248464	1.5	partner-social_feedback-affective				112
539.8160108040071	0.4684135289980986	partner-non_social_choice-choice_pentagon	0.4684135289980986			113
543.7986554233416	1.5	partner-non_social_feedback-informative			55.0	114
548.2984343624762	2.56192172653482	partner-non_social_feedback-partner		2.56192172653482		115
553.2987137512291	1.5	partner-non_social_feedback-affective				116
557.3155388783712	0.7104830390180723	partner-non_social_choice-choice_pentagon	0.7104830390180723			117
561.2980313697981	1.5	partner-non_social_feedback-informative			54.0	118
564.7979540259221	0.9478771757308097	partner-non_social_feedback-partner		0.9478771757308097		119
570.7982495051269	1.5	partner-non_social_feedback-affective				120
576.3145266426795	0.6050137847632868	partner-non_social_choice-choice_pentagon	0.6050137847632868			121
583.2972487887364	1.5	partner-non_social_feedback-informative			54.0	122
587.7980242388027	1.6682302441249703	partner-non_social_feedback-partner		1.6682302441249703		123
592.797604789981	1.5	partner-non_social_feedback-affective				124
597.5644892506639	0.5174575916030335	partner-social_choice-choice_pentagon	0.5174575916030335			125
601.5468862964567	1.5	partner-social_feedback-informative			58.0	126
608.046654996213	1.5160931944337792	partner-social_feedback-partner		1.5160931944337792		127
614.0635890995964	1.5	partner-social_feedback-affective				128
618.0632124367489	0.518357925516284	partner-non_social_choice-choice_pentagon	0.518357925516284			129
622.0461945898778	1.5	partner-non_social_feedback-informative			56.0	130
625.5459574385609	2.0952832669172494	partner-non_social_feedback-partner		2.0952832669172494		131
633.5628377852076	1.5	partner-non_social_feedback-affective				132
		partner-non_social_choice-choice_pentagon_catch	0.0			133
0.0	1.5	partner-non_social_feedback-informative_catch			44.0	134
638.2955541716142	1.4974399725583682	partner-non_social_feedback-partner_catch		1.4974399725583682		135
643.3128656692293	1.5	partner-non_social_feedback-affective_catch				136
657.5620292400076	3.0	partner-social_choice-choice_star_lapse	0.6384263391919376			137
662.5448161135632	1.5	partner-social_feedback-informative_lapse			0.0	138
666.0446393014399	3.0	partner-social_feedback-partner_lapse		0.0		139
0.0	1.5	partner-social_feedback-affective_lapse				140
678.0613602063381	0.7235718901274595	partner-social_choice-choice_pentagon	0.7235718901274595			141
683.0447629053651	1.5	partner-social_feedback-informative			54.0	142
686.5439336985619	1.9649941251564087	partner-social_feedback-partner		1.9649941251564087		143
691.5612122838893	1.5	partner-social_feedback-affective				144
695.5607778416925	0.5897252957629462	partner-non_social_choice-choice_pentagon	0.5897252957629462			145
699.560262947237	1.5	partner-non_social_feedback-informative			51.0	146
704.0600239674591	0.9553288833481022	partner-non_social_feedback-partner		0.9553288833481022		147
709.0606463753879	1.5	partner-non_social_feedback-affective				148
714.5769096166409	0.8594411274143567	partner-non_social_choice-choice_pentagon	0.8594411274143567			149
721.5597063638834	1.5	partner-non_social_feedback-informative			50.0	150
726.0592878292919	1.1044555557950844	partner-non_social_feedback-partner		1.1044555557950844		151
732.0598093062048	1.5	partner-non_social_feedback-affective				152
736.0761381891874	3.0	partner-non_social_choice-choice_star_lapse	0.0			153
0.0	1.5	partner-non_social_feedback-informative_lapse			0.0	154
0.0	3.0	partner-non_social_feedback-partner_lapse		0.0		155
0.0	1.5	partner-non_social_feedback-affective_lapse				156
757.3252831096698	0.5487366984075379	partner-social_choice-choice_pentagon	0.5487366984075379			157
761.308420316243	1.5	partner-social_feedback-informative			57.0	158
0.0	0.0	partner-social_feedback-partner		0.0		159
0.0	1.5	partner-social_feedback-affective				160
