index,onset,duration,trial_type,choice_RT,partner_RT,points,trialn
0,4.78361810489605,0.7049775628802308,partner-social_choice-choice_pentagon,0.7049775628802308,,,1
1,9.032593523349988,1.5,partner-social_feedback-informative,,,67.0,2
2,12.2658401020135,1.4456563118137638,partner-social_feedback-partner,,1.4456563118137638,,3
3,17.01567947117792,1.5,partner-social_feedback-affective,,,,4
0,21.283254057093924,0.8358789861954392,partner-non_social_choice-choice_pentagon,0.8358789861954392,,,5
1,25.53304570326645,1.5,partner-non_social_feedback-informative,,,69.0,6
2,0.0,0.0,partner-non_social_feedback-partner,,0.0,,7
3,0.0,1.5,partner-non_social_feedback-affective,,,,8
0,37.782832229731405,0.5391089002100671,partner-non_social_choice-choice_pentagon,0.5391089002100671,,,9
1,42.031886272271095,1.5,partner-non_social_feedback-informative,,,74.0,10
2,46.26503959911224,1.1197119359771932,partner-non_social_feedback-partner,,1.1197119359771932,,11
3,51.014855929590794,1.5,partner-non_social_feedback-affective,,,,12
0,55.28210687682804,0.4254652808835999,partner-non_social_choice-choice_pentagon,0.4254652808835999,,,13
1,60.53221667627804,1.5,partner-non_social_feedback-informative,,,74.0,14
2,66.76443492503813,1.4218866050523502,partner-non_social_feedback-partner,,1.4218866050523502,,15
3,71.51424394164816,1.5,partner-non_social_feedback-affective,,,,16
0,77.28177043887945,0.7401590985800794,partner-social_choice-choice_pentagon,0.7401590985800794,,,17
1,84.53140008286573,1.5,partner-social_feedback-informative,,,71.0,18
2,90.76389625862706,1.310826244061445,partner-social_feedback-partner,,1.310826244061445,,19
3,98.51301923437677,1.5,partner-social_feedback-affective,,,,20
0,102.7812418290373,0.436143528816956,partner-non_social_choice-choice_pentagon,0.436143528816956,,,21
1,108.03019494019236,1.5,partner-non_social_feedback-informative,,,71.0,22
2,111.26330694367698,0.9269344542080944,partner-non_social_feedback-partner,,0.9269344542080944,,23
3,116.02978353509206,1.5,partner-non_social_feedback-affective,,,,24
0,121.78075399401176,0.5473508985637636,partner-non_social_choice-choice_pentagon,0.5473508985637636,,,25
1,129.03009620296822,1.5,partner-non_social_feedback-informative,,,74.0,26
2,133.26281033200942,0.8770556998620123,partner-non_social_feedback-partner,,0.8770556998620123,,27
3,139.02920135116392,1.5,partner-non_social_feedback-affective,,,,28
0,0.0,3.0,partner-social_choice-choice_star_lapse,0.0,,,29
1,0.0,1.5,partner-social_feedback-informative_lapse,,,0.0,30
2,144.0124032238068,3.0,partner-social_feedback-partner_lapse,,0.0,,31
3,0.0,1.5,partner-social_feedback-affective_lapse,,,,32
0,153.04663103106122,0.5498025072670316,partner-social_choice-choice_pentagon,0.5498025072670316,,,33
1,157.29634112760098,1.5,partner-social_feedback-informative,,,68.0,34
2,160.52816808439908,1.123004639552164,partner-social_feedback-partner,,1.123004639552164,,35
3,168.27838850610942,1.5,partner-social_feedback-affective,,,,36
0,174.04595303545648,0.4500362219337149,partner-social_choice-choice_pentagon,0.4500362219337149,,,37
1,178.29508094806718,1.5,partner-social_feedback-informative,,,69.0,38
2,182.52719168296107,0.9355648189762178,partner-social_feedback-partner,,0.9355648189762178,,39
3,188.2781167958965,1.5,partner-social_feedback-affective,,,,40
0,193.295458343679,0.3440805754257781,partner-non_social_choice-choice_pentagon,0.3440805754257781,,,41
1,197.54412950520558,1.5,partner-non_social_feedback-informative,,,69.0,42
2,200.7778273495528,1.4736051630056863,partner-non_social_feedback-partner,,1.4736051630056863,,43
3,205.52688011216514,1.5,partner-non_social_feedback-affective,,,,44
0,209.79504017325056,0.4779861702063499,partner-non_social_choice-choice_pentagon,0.4779861702063499,,,45
1,214.0439947471796,1.5,partner-non_social_feedback-informative,,,72.0,46
2,217.2772029280341,1.099801026208752,partner-non_social_feedback-partner,,1.099801026208752,,47
3,222.0270236468336,1.5,partner-non_social_feedback-affective,,,,48
0,227.79459475866227,1.0312188817756578,partner-social_choice-choice_pentagon,1.0312188817756578,,,49
1,233.04468444497388,1.5,partner-social_feedback-informative,,,67.0,50
2,237.27656515870513,1.2921159057991645,partner-social_feedback-partner,,1.2921159057991645,,51
3,243.02635223370999,1.5,partner-social_feedback-affective,,,,52
0,248.0442123347657,0.3881009211449964,partner-non_social_choice-choice_pentagon,0.3881009211449964,,,53
1,253.29290397512383,1.5,partner-non_social_feedback-informative,,,65.0,54
2,257.52611435013887,0.7509466888473071,partner-non_social_feedback-partner,,0.7509466888473071,,55
3,263.2760381944836,1.5,partner-non_social_feedback-affective,,,,56
0,267.5437191971855,0.40530716236162334,partner-social_choice-choice_pentagon,0.40530716236162334,,,57
1,274.7926185514075,1.5,partner-social_feedback-informative,,,69.0,58
2,278.02573092058543,1.008919993958898,partner-social_feedback-partner,,1.008919993958898,,59
3,283.77586467295487,1.5,partner-social_feedback-affective,,,,60
0,288.79310528935275,0.3232920014438605,partner-social_choice-choice_pentagon,0.3232920014438605,,,61
1,293.0423538807932,1.5,partner-social_feedback-informative,,,70.0,62
2,296.2752654842821,1.1881134278601166,partner-social_feedback-partner,,1.1881134278601166,,63
3,304.02514288556216,1.5,partner-social_feedback-affective,,,,64
0,308.29254376710287,0.7306079177747051,partner-social_choice-choice_pentagon,0.7306079177747051,,,65
1,312.54141386585115,1.5,partner-social_feedback-informative,,,74.0,66
2,318.77478953429267,1.3460063169877683,partner-social_feedback-partner,,1.3460063169877683,,67
3,323.52444349689176,1.5,partner-social_feedback-affective,,,,68
0,327.79212705944786,0.6285871324921573,partner-social_choice-choice_pentagon,0.6285871324921573,,,69
1,332.04202658518034,1.5,partner-social_feedback-informative,,,73.0,70
2,335.27434430255107,1.6351553520512423,partner-social_feedback-partner,,1.6351553520512423,,71
3,341.0242078074812,1.5,partner-social_feedback-affective,,,,72
0,,,partner-non_social_choice-choice_pentagon_catch,0.0,,,73
1,0.0,1.5,partner-non_social_feedback-informative_catch,,,53.0,74
2,344.52394066843635,1.4215099408270362,partner-non_social_feedback-partner_catch,,1.4215099408270362,,75
3,350.273209921555,1.5,partner-non_social_feedback-affective_catch,,,,76
0,362.54117287388544,0.7798551195801338,partner-non_social_choice-choice_pentagon,0.7798551195801338,,,77
1,366.789880970448,1.5,partner-non_social_feedback-informative,,,76.0,78
2,373.02318532867235,1.0843775404264306,partner-non_social_feedback-partner,,1.0843775404264306,,79
3,378.7723050131812,1.5,partner-non_social_feedback-affective,,,,80
0,,,partner-non_social_choice-choice_pentagon_catch,0.0,,,81
1,0.0,1.5,partner-non_social_feedback-informative_catch,,,72.0,82
2,383.02306391845605,1.4762973979813978,partner-non_social_feedback-partner_catch,,1.4762973979813978,,83
3,388.7894582288514,1.5,partner-non_social_feedback-affective_catch,,,,84
0,400.2901861416085,0.38176125997460986,partner-social_choice-choice_pentagon,0.38176125997460986,,,85
1,405.5559666355948,1.5,partner-social_feedback-informative,,,72.0,86
2,408.7724816431041,0.9883936221604016,partner-social_feedback-partner,,0.9883936221604016,,87
3,416.53882731627436,1.5,partner-social_feedback-affective,,,,88
0,420.8064966167872,0.3272122349317215,partner-social_choice-choice_pentagon,0.3272122349317215,,,89
1,425.0563507965349,1.5,partner-social_feedback-informative,,,71.0,90
2,431.2882329730396,1.2303173743503066,partner-social_feedback-partner,,1.2303173743503066,,91
3,436.03820472322286,1.5,partner-social_feedback-affective,,,,92
0,440.30613512883934,0.3789498089436165,partner-social_choice-choice_pentagon,0.3789498089436165,,,93
1,447.55557095531196,1.5,partner-social_feedback-informative,,,71.0,94
2,451.78846573690316,1.3966658267909224,partner-social_feedback-partner,,1.3966658267909224,,95
3,456.5379346586306,1.5,partner-social_feedback-affective,,,,96
0,461.555393594002,0.30723732881415344,partner-non_social_choice-choice_pentagon,0.30723732881415344,,,97
1,468.8051124671832,1.5,partner-non_social_feedback-informative,,,56.0,98
2,473.03738008455554,1.1951972751453468,partner-non_social_feedback-partner,,1.1951972751453468,,99
3,477.786631053003,1.5,partner-non_social_feedback-affective,,,,100
0,482.0545987593482,0.4528498671252237,partner-social_choice-choice_pentagon,0.4528498671252237,,,101
1,487.3047648755855,1.5,partner-social_feedback-informative,,,70.0,102
2,490.5368620798225,1.358473537144164,partner-social_feedback-partner,,1.358473537144164,,103
3,496.2866579314697,1.5,partner-social_feedback-affective,,,,104
0,501.3043761434774,0.5205232634043568,partner-non_social_choice-choice_pentagon,0.5205232634043568,,,105
1,508.5541634013289,1.5,partner-non_social_feedback-informative,,,70.0,106
2,511.7863922551983,1.2633449757927335,partner-non_social_feedback-partner,,1.2633449757927335,,107
3,519.5362436922455,1.5,partner-non_social_feedback-affective,,,,108
0,523.8025851599414,0.8128530998551469,partner-non_social_choice-choice_pentagon,0.8128530998551469,,,109
1,529.0525684294672,1.5,partner-non_social_feedback-informative,,,68.0,110
2,533.2859184993695,1.7874542288973316,partner-non_social_feedback-partner,,1.7874542288973316,,111
3,538.0356657137913,1.5,partner-non_social_feedback-affective,,,,112
0,543.0531228206955,0.3188704022741149,partner-social_choice-choice_pentagon,0.3188704022741149,,,113
1,548.3031426595635,1.5,partner-social_feedback-informative,,,64.0,114
2,0.0,0.0,partner-social_feedback-partner,,0.0,,115
3,0.0,1.5,partner-social_feedback-affective,,,,116
0,563.3018751661616,0.3555867532677439,partner-non_social_choice-choice_pentagon,0.3555867532677439,,,117
1,570.5514089984717,1.5,partner-non_social_feedback-informative,,,60.0,118
2,573.7851723019412,1.1951073145633018,partner-non_social_feedback-partner,,1.1951073145633018,,119
3,581.5341464404678,1.5,partner-non_social_feedback-affective,,,,120
0,587.302268652284,0.6776840343004551,partner-social_choice-choice_pentagon,0.6776840343004551,,,121
1,591.5519911823999,1.5,partner-social_feedback-informative,,,54.0,122
2,595.7839856267857,1.4839513613119382,partner-social_feedback-partner,,1.4839513613119382,,123
3,601.5339164193051,1.5,partner-social_feedback-affective,,,,124
0,605.8015970563142,0.3539319905312368,partner-social_choice-choice_pentagon,0.3539319905312368,,,125
1,611.0506445163718,1.5,partner-social_feedback-informative,,,56.0,126
2,614.283657416939,1.326850564137203,partner-social_feedback-partner,,1.326850564137203,,127
3,619.0336704904789,1.5,partner-social_feedback-affective,,,,128
0,623.301623569087,0.5807079897795121,partner-non_social_choice-choice_pentagon,0.5807079897795121,,,129
1,627.5500705605455,1.5,partner-non_social_feedback-informative,,,56.0,130
2,630.7835080311761,1.1296822014451209,partner-non_social_feedback-partner,,1.1296822014451209,,131
3,635.5330515543615,1.5,partner-non_social_feedback-affective,,,,132
0,640.550839613813,0.44907225407177975,partner-social_choice-choice_pentagon,0.44907225407177975,,,133
1,645.8006901366266,1.5,partner-social_feedback-informative,,,57.0,134
2,649.0330477145802,1.2756809120101025,partner-social_feedback-partner,,1.2756809120101025,,135
3,653.7828179676882,1.5,partner-social_feedback-affective,,,,136
0,658.8003200548833,0.4322902172257273,partner-non_social_choice-choice_pentagon,0.4322902172257273,,,137
1,663.0502385966734,1.5,partner-non_social_feedback-informative,,,58.0,138
2,666.2823358009105,1.8669892570242157,partner-non_social_feedback-partner,,1.8669892570242157,,139
3,671.0481205003707,1.5,partner-non_social_feedback-affective,,,,140
0,675.2998938391992,0.4341881660875515,partner-non_social_choice-choice_pentagon,0.4341881660875515,,,141
1,679.5488604810113,1.5,partner-non_social_feedback-informative,,,51.0,142
2,682.7820478173402,1.2070497646582226,partner-non_social_feedback-partner,,1.2070497646582226,,143
3,687.5484691890492,1.5,partner-non_social_feedback-affective,,,,144
0,692.5661223076277,0.35361237448069005,partner-non_social_choice-choice_pentagon,0.35361237448069005,,,145
1,697.814886720977,1.5,partner-non_social_feedback-informative,,,63.0,146
2,704.0481852281064,1.1854003483595081,partner-non_social_feedback-partner,,1.1854003483595081,,147
3,709.7976252600532,1.5,partner-non_social_feedback-affective,,,,148
0,714.0656416036239,1.2026625406697349,partner-social_choice-choice_pentagon,1.2026625406697349,,,149
1,718.3154248388478,1.5,partner-social_feedback-informative,,,66.0,150
2,722.54770635257,1.5013261871963548,partner-social_feedback-partner,,1.5013261871963548,,151
3,730.2974488129771,1.5,partner-social_feedback-affective,,,,152
0,734.5649213704288,0.8128523684681568,partner-social_choice-choice_pentagon,0.8128523684681568,,,153
1,741.814836620978,1.5,partner-social_feedback-informative,,,56.0,154
2,0.0,0.0,partner-social_feedback-partner,,0.0,,155
3,0.0,1.5,partner-social_feedback-affective,,,,156
0,752.3146195819318,0.5988716163756179,partner-non_social_choice-choice_pentagon,0.5988716163756179,,,157
1,756.5638670762918,1.5,partner-non_social_feedback-informative,,,53.0,158
2,760.7966704345276,1.3556683029009946,partner-non_social_feedback-partner,,1.3556683029009946,,159
3,768.5464107007742,1.5,partner-non_social_feedback-affective,,,,160
