onset	duration	trial_type	choice_RT	partner_RT	points	trialn
4.782926881892763	0.5463958770110366	partner-social_choice-choice_pentagon	0.5463958770110366			1
9.766085906818716	1.5	partner-social_feedback-informative			36.0	2
0.0	0.0	partner-social_feedback-partner		0.0		3
0.0	1.5	partner-social_feedback-affective				4
21.532547016461194	0.38430789158337575	partner-social_choice-choice_pentagon	0.38430789158337575			5
25.515697630407427	1.5	partner-social_feedback-informative			37.0	6
29.015599075669797	1.1752614077568069	partner-social_feedback-partner		1.1752614077568069		7
34.03224184418377	1.5	partner-social_feedback-affective				8
38.032141278124975	0.4634124221392994	partner-social_choice-choice_pentagon	0.4634124221392994			9
42.015301034440654	1.5	partner-social_feedback-informative			34.0	10
45.515202845397646	1.1092407043133792	partner-social_feedback-partner		1.1092407043133792		11
50.531946179970866	1.5	partner-social_feedback-affective				12
54.53173883104182	0.409487438567794	partner-social_choice-choice_pentagon	0.409487438567794			13
58.51490846111619	1.5	partner-social_feedback-informative			38.0	14
63.01478028510292	1.1764532069782945	partner-social_feedback-partner		1.1764532069782945		15
71.03146145156688	1.5	partner-social_feedback-affective				16
75.03124532596394	0.4808125445006226	partner-social_choice-choice_pentagon	0.4808125445006226			17
82.01434254847572	1.5	partner-social_feedback-informative			37.0	18
0.0	0.0	partner-social_feedback-partner		0.0		19
0.0	1.5	partner-social_feedback-affective				20
		partner-social_choice-choice_pentagon_catch	0.0			21
0.0	1.5	partner-social_feedback-informative_catch			37.0	22
93.76404021033295	1.7575641218331841	partner-social_feedback-partner_catch		1.7575641218331841		23
99.78064421520277	1.5	partner-social_feedback-affective_catch				24
111.28035513349505	0.8389853286921607	partner-non_social_choice-choice_pentagon	0.8389853286921607			25
115.2635317117697	1.5	partner-non_social_feedback-informative			42.0	26
118.7634444935693	1.2438449000760556	partner-non_social_feedback-partner		1.2438449000760556		27
123.7801103008533	1.5	partner-non_social_feedback-affective				28
127.77995817183321	0.4561197372413517	partner-non_social_choice-choice_pentagon	0.4561197372413517			29
131.76314242969784	1.5	partner-non_social_feedback-informative			45.0	30
135.2630950722264	1.3697631139052646	partner-non_social_feedback-partner		1.3697631139052646		31
141.2797349151824	1.5	partner-non_social_feedback-affective				32
146.02950059626528	0.4821835341545011	partner-non_social_choice-choice_pentagon	0.4821835341545011			33
153.01263548533734	1.5	partner-non_social_feedback-informative			47.0	34
156.51252376558796	1.2720304579852382	partner-non_social_feedback-partner		1.2720304579852382		35
164.5291248448998	1.5	partner-non_social_feedback-affective				36
168.52903049565157	0.7802953424020416	partner-non_social_choice-choice_pentagon	0.7802953424020416			37
173.51213137511104	1.5	partner-non_social_feedback-informative			44.0	38
177.0120339174573	1.3361389435299316	partner-non_social_feedback-partner		1.3361389435299316		39
183.0286445048328	1.5	partner-non_social_feedback-affective				40
		partner-non_social_choice-choice_pentagon_catch	0.0			41
0.0	1.5	partner-non_social_feedback-informative_catch			50.0	42
187.76177838824424	1.4790743973076133	partner-non_social_feedback-partner_catch		1.4790743973076133		43
192.77848661612012	1.5	partner-non_social_feedback-affective_catch				44
207.2780413827504	1.5225277114345772	partner-social_choice-choice_pentagon	1.5225277114345772			45
214.2611550615261	1.5	partner-social_feedback-informative			51.0	46
218.76102761690254	1.8373620096535888	partner-social_feedback-partner		1.8373620096535888		47
224.79430620573018	1.5	partner-social_feedback-affective				48
229.52751542226227	0.8676009436389904	partner-social_choice-choice_pentagon	0.8676009436389904			49
234.51065945370328	1.5	partner-social_feedback-informative			38.0	50
239.01054188283797	1.2585802047228754	partner-social_feedback-partner		1.2585802047228754		51
245.0438164490233	1.5	partner-social_feedback-affective				52
249.02702886538464	0.8508129943052154	partner-non_social_choice-choice_pentagon	0.8508129943052154			53
253.02687198233247	1.5	partner-non_social_feedback-informative			51.0	54
0.0	0.0	partner-non_social_feedback-partner		0.0		55
0.0	1.5	partner-non_social_feedback-affective				56
264.5433203840816	3.0	partner-non_social_choice-choice_star_lapse	0.4341937765334478			57
268.52649769374597	1.5	partner-non_social_feedback-informative_lapse			0.0	58
275.0263808542704	3.0	partner-non_social_feedback-partner_lapse		0.0		59
0.0	1.5	partner-non_social_feedback-affective_lapse				60
		partner-non_social_choice-choice_pentagon_catch	0.0			61
0.0	1.5	partner-non_social_feedback-informative_catch			41.0	62
284.0261175540432	2.9042095489485287	partner-non_social_feedback-partner_catch		2.9042095489485287		63
289.04286052292167	1.5	partner-non_social_feedback-affective_catch				64
300.5424610013965	0.3774847587565091	partner-social_choice-choice_pentagon	0.3774847587565091			65
307.52559625616317	1.5	partner-social_feedback-informative			49.0	66
312.025439190264	1.158307798696569	partner-social_feedback-partner		1.158307798696569		67
317.04213754438166	1.5	partner-social_feedback-affective				68
322.5419351323321	0.6375657747739751	partner-social_choice-choice_pentagon	0.6375657747739751			69
326.5250989112901	1.5	partner-social_feedback-informative			41.0	70
331.02501864129044	1.264441926026393	partner-social_feedback-partner		1.264441926026393		71
337.0416288629708	1.5	partner-social_feedback-affective				72
341.04153012538563	0.4197879628645751	partner-non_social_choice-choice_pentagon	0.4197879628645751			73
345.02464526694075	1.5	partner-non_social_feedback-informative			52.0	74
351.52454122678137	1.1574239144624698	partner-non_social_feedback-partner		1.1574239144624698		75
356.5411243870499	1.5	partner-non_social_feedback-affective				76
361.29109595428235	0.5418272523784253	partner-social_choice-choice_pentagon	0.5418272523784253			77
366.27413941966415	1.5	partner-social_feedback-informative			55.0	78
369.7740441561797	1.1926333716214683	partner-social_feedback-partner		1.1926333716214683		79
374.7906818049669	1.5	partner-social_feedback-affective				80
380.2906278649898	0.4740442658880966	partner-non_social_choice-choice_pentagon	0.4740442658880966			81
384.2737872556109	1.5	partner-non_social_feedback-informative			57.0	82
387.77373587549715	1.3207314919141029	partner-non_social_feedback-partner		1.3207314919141029		83
395.7902155441484	1.5	partner-non_social_feedback-affective				84
401.29002081168886	3.0	partner-social_choice-choice_star_lapse	0.0			85
0.0	1.5	partner-social_feedback-informative_lapse			0.0	86
0.0	3.0	partner-social_feedback-partner_lapse		0.0		87
0.0	1.5	partner-social_feedback-affective_lapse				88
422.53950435926436	0.7401632680821422	partner-social_choice-choice_pentagon	0.7401632680821422			89
426.52272664938386	1.5	partner-social_feedback-informative			54.0	90
431.0226207807509	1.0939798962963323	partner-social_feedback-partner		1.0939798962963323		91
436.03916737154304	1.5	partner-social_feedback-affective				92
440.03913189915147	0.4821875567968164	partner-non_social_choice-choice_pentagon	0.4821875567968164			93
445.0222309501373	1.5	partner-non_social_feedback-informative			54.0	94
448.5221985861508	1.1281248160098585	partner-non_social_feedback-partner		1.1281248160098585		95
453.5387813807242	1.5	partner-non_social_feedback-affective				96
458.2886483592556	0.3834967806060377	partner-social_choice-choice_pentagon	0.3834967806060377			97
462.2718863742498	1.5	partner-social_feedback-informative			40.0	98
465.7717150462549	1.120360019177042	partner-social_feedback-partner		1.120360019177042		99
473.7884704487551	1.5	partner-social_feedback-affective				100
477.7881672877993	0.3676578091740339	partner-non_social_choice-choice_pentagon	0.3676578091740339			101
482.77132375286186	1.5	partner-non_social_feedback-informative			49.0	102
486.27121751853434	1.1943572567188312	partner-non_social_feedback-partner		1.1943572567188312		103
491.30452536294297	1.5	partner-non_social_feedback-affective				104
495.28774509319913	0.4247500750589097	partner-social_choice-choice_pentagon	0.4247500750589097			105
500.2709633606763	1.5	partner-social_feedback-informative			52.0	106
506.7707689939116	1.5876769642654835	partner-social_feedback-partner		1.5876769642654835		107
511.787425293132	1.5	partner-social_feedback-affective				108
515.7872464683942	0.4728111431577418	partner-non_social_choice-choice_pentagon	0.4728111431577418			109
519.78715394762	1.5	partner-non_social_feedback-informative			57.0	110
524.2704184754843	1.213418364678546	partner-non_social_feedback-partner		1.213418364678546		111
530.2869398333381	1.5	partner-non_social_feedback-affective				112
534.3034769160669	0.8053289771773962	partner-non_social_choice-choice_pentagon	0.8053289771773962			113
538.2866417921091	1.5	partner-non_social_feedback-informative			63.0	114
542.7865180044329	1.2760388382462224	partner-non_social_feedback-partner		1.2760388382462224		115
548.7865439687607	1.5	partner-non_social_feedback-affective				116
552.8030613039723	0.9522468468881016	partner-non_social_choice-choice_pentagon	0.9522468468881016			117
556.7862770115862	1.5	partner-non_social_feedback-informative			61.0	118
563.2860888616324	1.2422299920167459	partner-non_social_feedback-partner		1.2422299920167459		119
571.3026036369806	1.5	partner-non_social_feedback-affective				120
576.0524494052156	0.319494712236974	partner-social_choice-choice_pentagon	0.319494712236974			121
580.0356961968841	1.5	partner-social_feedback-informative			43.0	122
583.5355694836499	1.2773995884472242	partner-social_feedback-partner		1.2773995884472242		123
588.5522766144418	1.5	partner-social_feedback-affective				124
592.5521175372214	3.0	partner-non_social_choice-choice_star_lapse	0.6216050269867992			125
597.5352992352223	1.5	partner-non_social_feedback-informative_lapse			0.0	126
602.0350873151093	3.0	partner-non_social_feedback-partner_lapse		0.0		127
0.0	1.5	partner-non_social_feedback-affective_lapse				128
612.551611415674	0.9307611826716312	partner-social_choice-choice_pentagon	0.9307611826716312			129
619.5346654862037	1.5	partner-social_feedback-informative			70.0	130
626.0345694913293	1.3268005621457633	partner-social_feedback-partner		1.3268005621457633		131
632.0511310756068	1.5	partner-social_feedback-affective				132
636.800980135095	0.4699137435773082	partner-non_social_choice-choice_pentagon	0.4699137435773082			133
643.784090522618	1.5	partner-non_social_feedback-informative			66.0	134
648.2839612495203	1.2067437039245306	partner-non_social_feedback-partner		1.2067437039245306		135
656.3005425813149	1.5	partner-non_social_feedback-affective				136
661.8004231819758	0.6010829684614691	partner-social_choice-choice_pentagon	0.6010829684614691			137
668.7834801780641	1.5	partner-social_feedback-informative			69.0	138
672.2833746751257	1.3390743753657262	partner-social_feedback-partner		1.3390743753657262		139
677.3000850971707	1.5	partner-social_feedback-affective				140
682.0498778396653	0.6562809354913952	partner-social_choice-choice_pentagon	0.6562809354913952			141
689.0329867644094	1.5	partner-social_feedback-informative			72.0	142
692.5329306302639	2.90495849181616	partner-social_feedback-partner		2.90495849181616		143
700.5493817747238	1.5	partner-social_feedback-affective				144
705.2993171381751	0.3564302486615816	partner-non_social_choice-choice_pentagon	0.3564302486615816			145
709.2825372341263	1.5	partner-non_social_feedback-informative			77.0	146
712.7824569641266	1.6310571394405995	partner-non_social_feedback-partner		1.6310571394405995		147
718.7990851048503	1.5	partner-non_social_feedback-affective				148
722.7988883610692	1.141577994829731	partner-non_social_choice-choice_pentagon	1.141577994829731			149
727.7820338552893	1.5	partner-non_social_feedback-informative			76.0	150
734.2818756923058	1.3374210693573332	partner-non_social_feedback-partner		1.3374210693573332		151
739.2985784347608	1.5	partner-non_social_feedback-affective				152
743.2983882734857	0.4186129856016123	partner-non_social_choice-choice_pentagon	0.4186129856016123			153
747.2816259227848	1.5	partner-non_social_feedback-informative			42.0	154
750.7814619086853	1.3214840917294168	partner-non_social_feedback-partner		1.3214840917294168		155
758.8147031966478	1.5	partner-non_social_feedback-affective				156
764.2978781292958	1.0818629661284829	partner-social_choice-choice_pentagon	1.0818629661284829			157
769.2810338629688	1.5	partner-social_feedback-informative			76.0	158
772.7809283600308	0.9776183836220298	partner-social_feedback-partner		0.9776183836220298		159
777.7976457302761	1.5	partner-social_feedback-affective				160
