onset	duration	trial_type	choice_RT	partner_RT	points	trialn
4.816199985298908	0.971559552843246	partner-non_social_choice-choice_pentagon	0.971559552843246			1
8.796675907773079	1.5	partner-non_social_feedback-informative			47.0	2
12.26599942000803	1.5257567961627956	partner-non_social_feedback-partner		1.5257567961627956		3
17.28258184888682	1.5	partner-non_social_feedback-affective				4
22.7990953443034	0.55436144026703	partner-non_social_choice-choice_pentagon	0.55436144026703			5
26.785396418604932	1.5	partner-non_social_feedback-informative			47.0	6
0.0	0.0	partner-non_social_feedback-partner		0.0		7
0.0	1.5	partner-non_social_feedback-affective				8
40.54865513923641	0.7925651329794619	partner-social_choice-choice_pentagon	0.7925651329794619			9
44.53183098612135	1.5	partner-social_feedback-informative			51.0	10
49.03170646705576	1.3022730489178684	partner-social_feedback-partner		1.3022730489178684		11
55.03167355452752	1.5	partner-social_feedback-affective				12
59.04820698030835	0.4485593637789407	partner-social_choice-choice_pentagon	0.4485593637789407			13
66.03136125120271	1.5	partner-social_feedback-informative			54.0	14
69.53129195204565	1.2433172025373551	partner-social_feedback-partner		1.2433172025373551		15
74.53118663195481	1.5	partner-social_feedback-affective				16
80.04770670987705	0.5116958326520944	partner-social_choice-choice_pentagon	0.5116958326520944			17
84.03086024938193	1.5	partner-social_feedback-informative			61.0	18
87.53076608298124	1.3414930805065524	partner-social_feedback-partner		1.3414930805065524		19
93.53072914781046	1.5	partner-social_feedback-affective				20
97.54726988748665	0.477809824828455	partner-non_social_choice-choice_pentagon	0.477809824828455			21
101.53045524243544	1.5	partner-non_social_feedback-informative			60.0	22
106.0303186554427	1.5047106970471305	partner-non_social_feedback-partner		1.5047106970471305		23
112.03027696624008	1.5	partner-non_social_feedback-affective				24
116.04681990008476	0.4640991968976778	partner-social_choice-choice_pentagon	0.4640991968976778			25
120.0299895301589	1.5	partner-social_feedback-informative			64.0	26
123.52989243820022	1.2508227217856531	partner-social_feedback-partner		1.2508227217856531		27
128.52986208553511	1.5	partner-social_feedback-affective				28
132.5464280581498	0.5480078595119267	partner-non_social_choice-choice_pentagon	0.5480078595119267			29
139.52952235510338	1.5	partner-non_social_feedback-informative			65.0	30
0.0	0.0	partner-non_social_feedback-partner		0.0		31
0.0	1.5	partner-non_social_feedback-affective				32
151.04601646869762	0.6370911029757735	partner-non_social_choice-choice_pentagon	0.6370911029757735			33
155.02919633822512	1.5	partner-non_social_feedback-informative			64.0	34
158.52905134025286	1.3650321207990146	partner-non_social_feedback-partner		1.3650321207990146		35
164.52900855396615	1.5	partner-non_social_feedback-affective				36
170.04551071284504	0.6913748331060106	partner-non_social_choice-choice_pentagon	0.6913748331060106			37
175.02865401289657	1.5	partner-non_social_feedback-informative			65.0	38
181.5285605778854	1.3050194165632547	partner-non_social_feedback-partner		1.3050194165632547		39
187.54509692922443	1.5	partner-non_social_feedback-affective				40
191.5449784441223	0.9393608606405904	partner-social_choice-choice_pentagon	0.9393608606405904			41
196.52812942376363	1.5	partner-social_feedback-informative			66.0	42
201.0280184354042	1.816191208624787	partner-social_feedback-partner		1.816191208624787		43
206.04470033325762	1.5	partner-social_feedback-affective				44
210.79450916632183	0.9796765137296006	partner-non_social_choice-choice_pentagon	0.9796765137296006			45
215.7777219483778	1.5	partner-non_social_feedback-informative			66.0	46
219.2775710992894	1.189449267348664	partner-non_social_feedback-partner		1.189449267348664		47
224.29420984516102	1.5	partner-non_social_feedback-affective				48
228.29414584857815	0.6356235699049648	partner-social_choice-choice_pentagon	0.6356235699049648			49
233.2772445338689	1.5	partner-social_feedback-informative			73.0	50
236.77714305357316	1.3464566554800967	partner-social_feedback-partner		1.3464566554800967		51
241.79379094181374	1.5	partner-social_feedback-affective				52
246.543645852418	1.0417553933577892	partner-non_social_choice-choice_pentagon	1.0417553933577892			53
250.52682901319827	1.5	partner-non_social_feedback-informative			72.0	54
257.02664525158144	1.1896657586466972	partner-non_social_feedback-partner		1.1896657586466972		55
262.0432832660638	1.5	partner-non_social_feedback-affective				56
266.79322704049446	0.7798930781659692	partner-non_social_choice-choice_pentagon	0.7798930781659692			57
273.79291949120153	1.5	partner-non_social_feedback-informative			65.0	58
278.2761437926422	1.32472707285865	partner-non_social_feedback-partner		1.32472707285865		59
283.2928147196528	1.5	partner-non_social_feedback-affective				60
287.29271451928867	1.7859815302203972	partner-social_choice-choice_pentagon	1.7859815302203972			61
291.29248778853776	1.5	partner-social_feedback-informative			71.0	62
294.7924386025925	1.298234315991749	partner-social_feedback-partner		1.298234315991749		63
299.79249309111174	1.5	partner-social_feedback-affective				64
304.5589490810273	0.5283938210750421	partner-social_choice-choice_pentagon	0.5283938210750421			65
308.54214174987123	1.5	partner-social_feedback-informative			76.0	66
312.0419751759082	1.4822266861363005	partner-social_feedback-partner		1.4822266861363005		67
320.0419236129472	1.5	partner-social_feedback-affective				68
324.05853310323823	0.8165250879403629	partner-non_social_choice-choice_pentagon	0.8165250879403629			69
331.04155938096636	1.5	partner-non_social_feedback-informative			83.0	70
337.5414425414908	1.3695751467989794	partner-non_social_feedback-partner		1.3695751467989794		71
345.54136464850694	1.5	partner-non_social_feedback-affective				72
		partner-non_social_choice-choice_pentagon_catch	0.0			73
0.0	1.5	partner-non_social_feedback-informative_catch			83.0	74
348.79113636355333	1.3535412600599557	partner-non_social_feedback-partner_catch		1.3535412600599557		75
356.8077224493795	1.5	partner-non_social_feedback-affective_catch				76
		partner-non_social_choice-choice_pentagon_catch	0.0			77
0.0	1.5	partner-non_social_feedback-informative_catch			63.0	78
368.04061735126544	1.4986511348788554	partner-non_social_feedback-partner_catch		1.4986511348788554		79
374.0405705423361	1.5	partner-non_social_feedback-affective_catch				80
391.30678791642123	1.362199083495625	partner-non_social_choice-choice_pentagon	1.362199083495625			81
396.28994986690526	1.5	partner-non_social_feedback-informative			82.0	82
0.0	0.0	partner-non_social_feedback-partner		0.0		83
0.0	1.5	partner-non_social_feedback-affective				84
408.05643474670717	0.6911239665007542	partner-social_choice-choice_pentagon	0.6911239665007542			85
415.03947309236236	1.5	partner-social_feedback-informative			58.0	86
419.5393712463717	1.6180994770199957	partner-social_feedback-partner		1.6180994770199957		87
424.53940159903686	1.5	partner-social_feedback-affective				88
428.5558838275515	0.5473949550944326	partner-non_social_choice-choice_pentagon	0.5473949550944326			89
432.5390556517941	1.5	partner-non_social_feedback-informative			81.0	90
437.0389388123185	1.2330261863046417	partner-non_social_feedback-partner		1.2330261863046417		91
445.0388430002913	1.5	partner-non_social_feedback-affective				92
449.055383008578	0.4804687914263468	partner-social_choice-choice_pentagon	0.4804687914263468			93
454.0385336225247	1.5	partner-social_feedback-informative			77.0	94
457.538565986511	1.5642629915807902	partner-social_feedback-partner		1.5642629915807902		95
462.5550701567111	1.5	partner-social_feedback-affective				96
468.0549240616547	0.5604941413871529	partner-social_choice-choice_pentagon	0.5604941413871529			97
473.0380823551912	1.5	partner-social_feedback-informative			76.0	98
476.5379775836425	1.5874696153366583	partner-social_feedback-partner		1.5874696153366583		99
481.5547150670996	1.5	partner-social_feedback-affective				100
485.55449126190666	0.5677158815017265	partner-social_choice-choice_pentagon	0.5677158815017265			101
492.5376031122088	1.5	partner-social_feedback-informative			47.0	102
496.0375019976075	1.3334814397110222	partner-social_feedback-partner		1.3334814397110222		103
504.05407820967554	1.5	partner-social_feedback-affective				104
508.05394363400393	0.43089850105388905	partner-social_choice-choice_pentagon	0.43089850105388905			105
513.0371037560142	1.5	partner-social_feedback-informative			80.0	106
519.5369393762198	1.475775830575003	partner-social_feedback-partner		1.475775830575003		107
524.5535580088797	1.5	partner-social_feedback-affective				108
530.0534865155541	0.8577988612996705	partner-non_social_choice-choice_pentagon	0.8577988612996705			109
537.0365175473144	1.5	partner-non_social_feedback-informative			80.0	110
543.5363528018252	2.072897593399375	partner-non_social_feedback-partner		2.072897593399375		111
548.5529948389499	1.5	partner-non_social_feedback-affective				112
554.052824973734	0.588231723215813	partner-social_choice-choice_pentagon	0.588231723215813			113
558.0360037461771	1.5	partner-social_feedback-informative			82.0	114
561.5359179907558	1.2749476050832982	partner-social_feedback-partner		1.2749476050832982		115
566.5525340635525	1.5	partner-social_feedback-affective				116
570.5524356916621	0.6041763804337279	partner-non_social_choice-choice_pentagon	0.6041763804337279			117
574.5522817341684	1.5	partner-non_social_feedback-informative			84.0	118
578.0355020129667	1.1699471315084793	partner-non_social_feedback-partner		1.1699471315084793		119
583.052133810638	1.5	partner-non_social_feedback-affective				120
587.8186735446536	0.6726241999967897	partner-social_choice-choice_pentagon	0.6726241999967897			121
591.8018464659806	1.5	partner-social_feedback-informative			81.0	122
596.3017201184413	1.4074033441322626	partner-social_feedback-partner		1.4074033441322626		123
604.3016177239084	1.5	partner-social_feedback-affective				124
608.3181701658167	0.8509219713434959	partner-social_choice-choice_pentagon	0.8509219713434959			125
612.3013906274628	1.5	partner-social_feedback-informative			79.0	126
615.8012419725427	1.224634588653771	partner-social_feedback-partner		1.224634588653771		127
621.8012090600147	1.5	partner-social_feedback-affective				128
625.8177483369117	3.0	partner-social_choice-choice_star_lapse	1.4480013135755598			129
630.8008887114049	1.5	partner-social_feedback-informative_lapse			0.0	130
637.3007345710638	3.0	partner-social_feedback-partner_lapse		0.0		131
0.0	1.5	partner-social_feedback-affective_lapse				132
		partner-social_choice-choice_pentagon_catch	0.0			133
0.0	1.5	partner-social_feedback-informative_catch			61.0	134
646.5504956809617	1.4347042864178547	partner-social_feedback-partner_catch		1.4347042864178547		135
651.5504708137182	1.5	partner-social_feedback-affective_catch				136
663.566879903281	0.6690089416028968	partner-non_social_choice-choice_pentagon	0.6690089416028968			137
667.5499928506673	1.5	partner-non_social_feedback-informative			57.0	138
672.049928671237	1.3349932218475258	partner-non_social_feedback-partner		1.3349932218475258		139
678.0498313964307	1.5	partner-non_social_feedback-affective				140
682.8164636512206	0.4721430188324121	partner-non_social_choice-choice_pentagon	0.4721430188324121			141
687.7995488058053	1.5	partner-non_social_feedback-informative			88.0	142
692.2993807690633	1.7930990473287238	partner-non_social_feedback-partner		1.7930990473287238		143
698.2993240863757	1.5	partner-non_social_feedback-affective				144
703.0658693058127	0.7704117101311567	partner-social_choice-choice_pentagon	0.7704117101311567			145
708.0490104116952	1.5	partner-social_feedback-informative			88.0	146
712.548884064156	1.1703278197537657	partner-social_feedback-partner		1.1703278197537657		147
720.5488866240194	1.5	partner-social_feedback-affective				148
725.3153777206317	0.4824779184359613	partner-non_social_choice-choice_pentagon	0.4824779184359613			149
730.2985305287469	1.5	partner-non_social_feedback-informative			86.0	150
734.7984118607974	1.3073415782873778	partner-non_social_feedback-partner		1.3073415782873778		151
740.7984356309572	1.5	partner-non_social_feedback-affective				152
744.8148549599726	1.2495819194659816	partner-social_choice-choice_pentagon	1.2495819194659816			153
748.7981116253999	1.5	partner-social_feedback-informative			87.0	154
755.2978539934414	1.0686153077631388	partner-social_feedback-partner		1.0686153077631388		155
760.3145355256001	1.5	partner-social_feedback-affective				156
765.0643465528333	0.6377775120395199	partner-non_social_choice-choice_pentagon	0.6377775120395199			157
769.0475231311079	1.5	partner-non_social_feedback-informative			92.0	158
773.5474084858006	1.7528415397064236	partner-non_social_feedback-partner		1.7528415397064236		159
778.5641445064784	1.5	partner-non_social_feedback-affective				160
