index,onset,duration,trial_type,choice_RT,partner_RT,points,trialn
0,4.816222539724208,1.6025124509012585,partner-non_social_choice-choice_pentagon,1.6025124509012585,,,1
1,8.7973261326124,1.5,partner-non_social_feedback-informative,,,31.0,2
2,12.266231151772786,1.3503344802655874,partner-non_social_feedback-partner,,1.3503344802655874,,3
3,18.28255308660573,1.5,partner-non_social_feedback-affective,,,,4
0,,,partner-non_social_choice-choice_pentagon_catch,0.0,,,5
1,0.0,1.5,partner-non_social_feedback-informative_catch,,,33.0,6
2,23.032234294530554,1.374110682560513,partner-non_social_feedback-partner_catch,,1.374110682560513,,7
3,31.048802340136717,1.5,partner-non_social_feedback-affective_catch,,,,8
0,46.048236980173215,1.1514100538262255,partner-social_choice-choice_pentagon,1.1514100538262255,,,9
1,50.03131969862579,1.5,partner-social_feedback-informative,,,30.0,10
2,54.53117909001912,1.26333194492247,partner-social_feedback-partner,,1.26333194492247,,11
3,59.531134109892605,1.5,partner-social_feedback-affective,,,,12
0,64.29764483326447,0.6025614536406465,partner-social_choice-choice_pentagon,0.6025614536406465,,,13
1,69.28078715952688,1.5,partner-social_feedback-informative,,,48.0,14
2,75.78066117860362,1.035340848793339,partner-social_feedback-partner,,1.035340848793339,,15
3,80.78046772749066,1.5,partner-social_feedback-affective,,,,16
0,84.79697031421358,0.3078205812236092,partner-non_social_choice-choice_pentagon,0.3078205812236092,,,17
1,91.7800288969886,1.5,partner-non_social_feedback-informative,,,45.0,18
2,96.2798996248365,1.3524533002064345,partner-non_social_feedback-partner,,1.3524533002064345,,19
3,102.27976980414631,1.5,partner-non_social_feedback-affective,,,,20
0,106.29624898657572,0.5939241722834367,partner-social_choice-choice_pentagon,0.5939241722834367,,,21
1,113.27946627971563,1.5,partner-social_feedback-informative,,,32.0,22
2,116.77920682118132,1.0126511176829354,partner-social_feedback-partner,,1.0126511176829354,,23
3,121.77914538491108,1.5,partner-social_feedback-affective,,,,24
0,125.79568929483958,1.2299548626258456,partner-social_choice-choice_pentagon,1.2299548626258456,,,25
1,129.77880053727472,1.5,partner-social_feedback-informative,,,36.0,26
2,133.2786460323689,1.3538506096635956,partner-social_feedback-partner,,1.3538506096635956,,27
3,138.27874842615256,1.5,partner-social_feedback-affective,,,,28
0,143.04520100448303,0.6030123519815334,partner-social_choice-choice_pentagon,0.6030123519815334,,,29
1,147.0283301658303,1.5,partner-social_feedback-informative,,,39.0,30
2,150.52809849989444,1.4089849082533874,partner-social_feedback-partner,,1.4089849082533874,,31
3,155.5447747903579,1.5,partner-social_feedback-affective,,,,32
0,,,partner-social_choice-choice_pentagon_catch,0.0,,,33
1,0.0,1.5,partner-social_feedback-informative_catch,,,49.0,34
2,158.77798687238555,1.3208278829977191,partner-social_feedback-partner_catch,,1.3208278829977191,,35
3,163.79460392073108,1.5,partner-social_feedback-affective_catch,,,,36
0,180.293945492132,1.009374882292832,partner-social_choice-choice_pentagon,1.009374882292832,,,37
1,184.27707428778717,1.5,partner-social_feedback-informative,,,46.0,38
2,187.77689418443538,1.082236470398584,partner-social_feedback-partner,,1.082236470398584,,39
3,192.7935616982886,1.5,partner-social_feedback-affective,,,,40
0,196.79342090683602,0.5835264492286569,partner-non_social_choice-choice_pentagon,0.5835264492286569,,,41
1,201.7765416572654,1.5,partner-non_social_feedback-informative,,,30.0,42
2,205.27645846231601,1.0350980292489569,partner-non_social_feedback-partner,,1.0350980292489569,,43
3,210.29301955977257,1.5,partner-non_social_feedback-affective,,,,44
0,214.2929519067368,1.1826076112954524,partner-non_social_choice-choice_pentagon,1.1826076112954524,,,45
1,218.2759607553883,1.5,partner-non_social_feedback-informative,,,47.0,46
2,222.775817952629,1.298420466177049,partner-non_social_feedback-partner,,1.298420466177049,,47
3,228.79243061266948,1.5,partner-non_social_feedback-affective,,,,48
0,232.7923830726984,0.3036418177675841,partner-non_social_choice-choice_pentagon,0.3036418177675841,,,49
1,239.77583331169652,1.5,partner-non_social_feedback-informative,,,26.0,50
2,246.27506992946903,1.0897137764618492,partner-non_social_feedback-partner,,1.0897137764618492,,51
3,254.2916259072363,1.5,partner-non_social_feedback-affective,,,,52
0,258.30820090099223,0.7841253797255376,partner-non_social_choice-choice_pentagon,0.7841253797255376,,,53
1,263.29437993432913,1.5,partner-non_social_feedback-informative,,,30.0,54
2,0.0,0.0,partner-non_social_feedback-partner,,0.0,,55
3,0.0,1.5,partner-non_social_feedback-affective,,,,56
0,275.0576641564344,1.1472440895931868,partner-social_choice-choice_pentagon,1.1472440895931868,,,57
1,282.0406174198888,1.5,partner-social_feedback-informative,,,30.0,58
2,285.5404446303785,1.455236180404654,partner-social_feedback-partner,,1.455236180404654,,59
3,293.54035028182057,1.5,partner-social_feedback-affective,,,,60
0,299.0567766217439,0.5575140398334497,partner-non_social_choice-choice_pentagon,0.5575140398334497,,,61
1,304.04002536440294,1.5,partner-non_social_feedback-informative,,,32.0,62
2,308.5397823620124,1.1792417813446718,partner-non_social_feedback-partner,,1.1792417813446718,,63
3,314.5398112516873,1.5,partner-non_social_feedback-affective,,,,64
0,320.0562503908334,0.7725501281568086,partner-non_social_choice-choice_pentagon,0.7725501281568086,,,65
1,325.0392833751623,1.5,partner-non_social_feedback-informative,,,46.0,66
2,0.0,0.0,partner-non_social_feedback-partner,,0.0,,67
3,0.0,1.5,partner-non_social_feedback-affective,,,,68
0,335.80568219675615,1.4378328940763367,partner-social_choice-choice_pentagon,1.4378328940763367,,,69
1,339.78872322631105,1.5,partner-social_feedback-informative,,,33.0,70
2,346.2886104103029,1.2895835169413203,partner-social_feedback-partner,,1.2895835169413203,,71
3,351.2885881030857,1.5,partner-social_feedback-affective,,,,72
0,356.80509562665185,1.0169403201489329,partner-non_social_choice-choice_pentagon,1.0169403201489329,,,73
1,360.7880792425492,1.5,partner-non_social_feedback-informative,,,48.0,74
2,364.2879949505236,1.6666285127923857,partner-non_social_feedback-partner,,1.6666285127923857,,75
3,370.2879876366819,1.5,partner-non_social_feedback-affective,,,,76
0,375.0543703678241,0.2431285542984369,partner-non_social_choice-choice_pentagon,0.2431285542984369,,,77
1,379.03757559312515,1.5,partner-non_social_feedback-informative,,,35.0,78
2,382.53736733148287,1.3568500161452448,partner-non_social_feedback-partner,,1.3568500161452448,,79
3,390.5374258422162,1.5,partner-non_social_feedback-affective,,,,80
0,395.30364584038057,0.6321272930265422,partner-non_social_choice-choice_pentagon,0.6321272930265422,,,81
1,399.28689970272904,1.5,partner-non_social_feedback-informative,,,41.0,82
2,403.78674629489916,1.3970106866197511,partner-non_social_feedback-partner,,1.3970106866197511,,83
3,408.8033670001658,1.5,partner-non_social_feedback-affective,,,,84
0,413.5532570182711,0.43602747225213534,partner-social_choice-choice_pentagon,0.43602747225213534,,,85
1,418.5362278349455,1.5,partner-social_feedback-informative,,,39.0,86
2,422.0361000255618,1.1550826994364345,partner-social_feedback-partner,,1.1550826994364345,,87
3,427.05282568445676,1.5,partner-social_feedback-affective,,,,88
0,431.0527346271276,0.5241998565757058,partner-social_choice-choice_pentagon,0.5241998565757058,,,89
1,436.03573689332137,1.5,partner-social_feedback-informative,,,58.0,90
2,440.53558787379677,1.4031356633527141,partner-social_feedback-partner,,1.4031356633527141,,91
3,446.5522535591897,1.5,partner-social_feedback-affective,,,,92
0,450.55207144453135,0.5144815894147996,partner-non_social_choice-choice_pentagon,0.5144815894147996,,,93
1,455.53512783315364,1.5,partner-non_social_feedback-informative,,,39.0,94
2,460.034913720438,1.76335516636982,partner-non_social_feedback-partner,,1.76335516636982,,95
3,466.0517282425094,1.5,partner-non_social_feedback-affective,,,,96
0,470.0513504825856,0.884555031356058,partner-social_choice-choice_pentagon,0.884555031356058,,,97
1,474.0345407145112,1.5,partner-social_feedback-informative,,,41.0,98
2,477.5344081511303,1.2862919224835423,partner-social_feedback-partner,,1.2862919224835423,,99
3,485.5508866021755,1.5,partner-social_feedback-affective,,,,100
0,490.3007294460022,0.3077152619032404,partner-social_choice-choice_pentagon,0.3077152619032404,,,101
1,494.284192484223,1.5,partner-social_feedback-informative,,,57.0,102
2,498.78365327124357,1.2325282378285465,partner-social_feedback-partner,,1.2325282378285465,,103
3,503.8003255390941,1.5,partner-social_feedback-affective,,,,104
0,,,partner-social_choice-choice_pentagon_catch,0.0,,,105
1,0.0,1.5,partner-social_feedback-informative_catch,,,39.0,106
2,508.5338420597825,1.32113652711746,partner-social_feedback-partner_catch,,1.32113652711746,,107
3,514.5501025583453,1.5,partner-social_feedback-affective_catch,,,,108
0,528.0661555266497,1.1363157473228966,partner-social_choice-choice_pentagon,1.1363157473228966,,,109
1,535.0492166692691,1.5,partner-social_feedback-informative,,,54.0,110
2,538.5490910540381,1.1851169903834489,partner-social_feedback-partner,,1.1851169903834489,,111
3,543.5491418852378,1.5,partner-social_feedback-affective,,,,112
0,548.3155056003914,3.0,partner-non_social_choice-choice_star_lapse,0.0,,,113
1,0.0,1.5,partner-non_social_feedback-informative_lapse,,,0.0,114
2,0.0,3.0,partner-non_social_feedback-partner_lapse,,0.0,,115
3,0.0,1.5,partner-non_social_feedback-affective_lapse,,,,116
0,566.315030566373,0.5594949938583795,partner-non_social_choice-choice_pentagon,0.5594949938583795,,,117
1,571.2980639163941,1.5,partner-non_social_feedback-informative,,,33.0,118
2,574.7978892984232,1.3924044291161408,partner-non_social_feedback-partner,,1.3924044291161408,,119
3,580.7979218450189,1.5,partner-non_social_feedback-affective,,,,120
0,584.8144544184929,0.6197588553252444,partner-social_choice-choice_pentagon,0.6197588553252444,,,121
1,588.7976234402774,1.5,partner-social_feedback-informative,,,35.0,122
2,595.2973314351475,1.078486298066082,partner-social_feedback-partner,,1.078486298066082,,123
3,603.2972129509121,1.5,partner-social_feedback-affective,,,,124
0,608.0636980758378,0.3907661285752511,partner-non_social_choice-choice_pentagon,0.3907661285752511,,,125
1,612.0467581213811,1.5,partner-non_social_feedback-informative,,,37.0,126
2,616.5466610301326,2.6076906508258157,partner-non_social_feedback-partner,,2.6076906508258157,,127
3,624.5465674129589,1.5,partner-non_social_feedback-affective,,,,128
0,628.5630952324358,0.6578573881320153,partner-social_choice-choice_pentagon,0.6578573881320153,,,129
1,633.5460411820484,1.5,partner-social_feedback-informative,,,56.0,130
2,637.0459389711108,1.203933310928733,partner-social_feedback-partner,,1.203933310928733,,131
3,643.0460384393577,1.5,partner-social_feedback-affective,,,,132
0,647.0624631336666,1.4430575368955942,partner-non_social_choice-choice_pentagon,1.4430575368955942,,,133
1,652.0454836844647,1.5,partner-non_social_feedback-informative,,,44.0,134
2,656.5453492926235,1.5379187951468791,partner-non_social_feedback-partner,,1.5379187951468791,,135
3,661.5620533756853,1.5,partner-non_social_feedback-affective,,,,136
0,666.3117495769858,0.24820472613123454,partner-social_choice-choice_pentagon,0.24820472613123454,,,137
1,670.2949387118349,1.5,partner-social_feedback-informative,,,42.0,138
2,0.0,0.0,partner-social_feedback-partner,,0.0,,139
3,0.0,1.5,partner-social_feedback-affective,,,,140
0,684.8111829370997,0.7514087373347138,partner-non_social_choice-choice_pentagon,0.7514087373347138,,,141
1,689.7942561475581,1.5,partner-non_social_feedback-informative,,,40.0,142
2,693.2941100535703,1.2363694674900216,partner-non_social_feedback-partner,,1.2363694674900216,,143
3,699.3108225475501,1.5,partner-non_social_feedback-affective,,,,144
0,703.3105460843339,0.5796651065024889,partner-non_social_choice-choice_pentagon,0.5796651065024889,,,145
1,707.2937077922766,1.5,partner-non_social_feedback-informative,,,51.0,146
2,713.7935167181622,1.4353871454113687,partner-non_social_feedback-partner,,1.4353871454113687,,147
3,718.8101242585135,1.5,partner-non_social_feedback-affective,,,,148
0,722.8100408807181,0.5906303836729876,partner-social_choice-choice_pentagon,0.5906303836729876,,,149
1,726.7931535859218,1.5,partner-social_feedback-informative,,,45.0,150
2,731.2928805967803,1.2475088140934076,partner-social_feedback-partner,,1.2475088140934076,,151
3,739.3097079180748,1.5,partner-social_feedback-affective,,,,152
0,744.0593964398413,0.3096314884289768,partner-non_social_choice-choice_pentagon,0.3096314884289768,,,153
1,751.0590764592669,1.5,partner-non_social_feedback-informative,,,56.0,154
2,754.542127911046,1.2206666493573266,partner-non_social_feedback-partner,,1.2206666493573266,,155
3,759.5587972533598,1.5,partner-non_social_feedback-affective,,,,156
0,765.0753428089029,0.8432563271128402,partner-social_choice-choice_pentagon,0.8432563271128402,,,157
1,769.0583432466362,1.5,partner-social_feedback-informative,,,52.0,158
2,773.5582585889184,1.2222138925692434,partner-social_feedback-partner,,1.2222138925692434,,159
3,778.5582106832553,1.5,partner-social_feedback-affective,,,,160
