onset	duration	trial_type	choice_RT	partner_RT	points	trialn
4.783782973325059	1.124596592968146	partner-social_choice-choice_pentagon	1.124596592968146			1
9.03285986832793	1.5	partner-social_feedback-informative			87.0	2
15.266039280736775	1.2711571788991023	partner-social_feedback-partner		1.2711571788991023		3
21.01561699471313	1.5	partner-social_feedback-affective				4
26.033568950467046	0.8335470819204147	partner-social_choice-choice_pentagon	0.8335470819204147			5
30.283234614032835	1.5	partner-social_feedback-informative			52.0	6
33.51575870143256	1.3220805398825632	partner-social_feedback-partner		1.3220805398825632		7
38.26558984187727	1.5	partner-social_feedback-affective				8
43.282788100731295	0.6227909750921299	partner-non_social_choice-choice_pentagon	0.6227909750921299			9
50.53264502265665	1.5	partner-non_social_feedback-informative			78.0	10
53.76510547916792	1.6573059779025243	partner-non_social_feedback-partner		1.6573059779025243		11
59.514694163987095	1.5	partner-non_social_feedback-affective				12
63.782472689001	1.2428158350219292	partner-social_choice-choice_pentagon	1.2428158350219292			13
68.03232595397867	1.5	partner-social_feedback-informative			80.0	14
71.26464671509189	1.2166770706826355	partner-social_feedback-partner		1.2166770706826355		15
76.01329483298899	1.5	partner-social_feedback-affective				16
81.03128847794528	1.1286547077165778	partner-non_social_choice-choice_pentagon	1.1286547077165778			17
85.2820025883873	1.5	partner-non_social_feedback-informative			83.0	18
88.51446231350953	1.2514374546767613	partner-non_social_feedback-partner		1.2514374546767613		19
96.28109493399393	1.5	partner-non_social_feedback-affective				20
102.03150862619101	1.0150823489743743	partner-social_choice-choice_pentagon	1.0150823489743743			21
106.2815670459288	1.5	partner-social_feedback-informative			81.0	22
109.51372287870504	1.2548420728894598	partner-social_feedback-partner		1.2548420728894598		23
115.27998505039818	1.5	partner-social_feedback-affective				24
119.53122027587256	0.7110137387867326	partner-social_choice-choice_pentagon	0.7110137387867326			25
124.78105927875478	1.5	partner-social_feedback-informative			80.0	26
128.01282893786515	1.5875025278646715	partner-social_feedback-partner		1.5875025278646715		27
133.7799216023575	1.5	partner-social_feedback-affective				28
		partner-social_choice-choice_pentagon_catch	0.0			29
0.0	1.5	partner-social_feedback-informative_catch			48.0	30
137.2794248060261	1.632566361713998	partner-social_feedback-partner_catch		1.632566361713998		31
142.02967393558149	1.5	partner-social_feedback-affective_catch				32
152.79707707492457	1.94264333680394	partner-social_choice-choice_pentagon	1.94264333680394			33
157.0305311240979	1.5	partner-social_feedback-informative			48.0	34
160.27932570274632	1.8652089342158436	partner-social_feedback-partner		1.8652089342158436		35
165.02921937699492	1.5	partner-social_feedback-affective				36
169.29678287349017	0.4446266823329097	partner-social_choice-choice_pentagon	0.4446266823329097			37
173.53010454116088	1.5	partner-social_feedback-informative			79.0	38
176.7790922066422	1.3341864992075898	partner-social_feedback-partner		1.3341864992075898		39
184.52878657724682	1.5	partner-social_feedback-affective				40
188.7962089155651	0.7058775558862179	partner-social_choice-choice_pentagon	0.7058775558862179			41
196.0294033214593	1.5	partner-social_feedback-informative			74.0	42
199.27831163117776	1.1506991535261475	partner-social_feedback-partner		1.1506991535261475		43
205.0282605253353	1.5	partner-social_feedback-affective				44
210.04624502792262	0.8094686418571655	partner-non_social_choice-choice_pentagon	0.8094686418571655			45
215.2790368038861	1.5	partner-non_social_feedback-informative			74.0	46
219.5278679520104	1.5247182230450562	partner-non_social_feedback-partner		1.5247182230450562		47
224.27775979778542	1.5	partner-non_social_feedback-affective				48
228.54517555359803	0.6151969577122145	partner-non_social_choice-choice_pentagon	0.6151969577122145			49
232.77876893247483	1.5	partner-non_social_feedback-informative			70.0	50
236.02769479554195	1.6285462792207	partner-non_social_feedback-partner		1.6285462792207		51
243.77739684573658	1.5	partner-non_social_feedback-affective				52
249.54492066435049	3.0	partner-non_social_choice-choice_star_lapse	1.2951727194636078			53
253.77844053858075	1.5	partner-non_social_feedback-informative_lapse			0.0	54
257.0270954218306	3.0	partner-non_social_feedback-partner_lapse		0.0		55
0.0	1.5	partner-non_social_feedback-affective_lapse				56
267.5445838594767	1.0910762799044278	partner-social_choice-choice_pentagon	1.0910762799044278			57
272.7941028794441	1.5	partner-social_feedback-informative			70.0	58
277.02664488588675	1.0929051193975283	partner-social_feedback-partner		1.0929051193975283		59
281.7764815117528	1.5	partner-social_feedback-affective				60
286.04410534788366	0.3962781781524427	partner-social_choice-choice_pentagon	0.3962781781524427			61
293.2939725092622	1.5	partner-social_feedback-informative			72.0	62
296.5262804710585	1.075954070201078	partner-social_feedback-partner		1.075954070201078		63
302.27595326567257	1.5	partner-social_feedback-affective				64
307.2936869016546	0.6671453611070319	partner-non_social_choice-choice_pentagon	0.6671453611070319			65
312.54332733228216	1.5	partner-non_social_feedback-informative			68.0	66
316.7756901482928	1.1491193521642344	partner-non_social_feedback-partner		1.1491193521642344		67
322.52556700058244	1.5	partner-non_social_feedback-affective				68
328.29286116288745	0.6807002030705007	partner-non_social_choice-choice_pentagon	0.6807002030705007			69
332.54283876408334	1.5	partner-non_social_feedback-informative			57.0	70
336.77531457977443	1.322007400930488	partner-non_social_feedback-partner		1.322007400930488		71
341.52521008249715	1.5	partner-non_social_feedback-affective				72
347.2927331697212	0.8633694895738699	partner-social_choice-choice_pentagon	0.8633694895738699			73
354.5425257293689	1.5	partner-social_feedback-informative			67.0	74
360.7747111834212	1.3291984226852946	partner-social_feedback-partner		1.3291984226852946		75
365.52467251120044	1.5	partner-social_feedback-affective				76
369.79222576824236	0.3866900272478233	partner-non_social_choice-choice_pentagon	0.3866900272478233			77
375.04227541130587	1.5	partner-non_social_feedback-informative			62.0	78
378.27437127014196	1.3523063088559866	partner-non_social_feedback-partner		1.3523063088559866		79
383.02393728188576	1.5	partner-non_social_feedback-affective				80
388.79157154031714	0.4398448576548617	partner-non_social_choice-choice_pentagon	0.4398448576548617			81
394.0414518667074	1.5	partner-non_social_feedback-informative			50.0	82
397.2741631898237	1.2873102821295106	partner-non_social_feedback-partner		1.2873102821295106		83
402.04075375541083	1.5	partner-non_social_feedback-affective				84
406.2914173999759	0.959698609006864	partner-social_choice-choice_pentagon	0.959698609006864			85
411.54138841866614	1.5	partner-social_feedback-informative			50.0	86
415.7739574865216	1.0740908554003	partner-social_feedback-partner		1.0740908554003		87
420.54018308873833	1.5	partner-social_feedback-affective				88
424.79077322865686	0.7772779949395954	partner-non_social_choice-choice_pentagon	0.7772779949395954			89
432.04093806556983	1.5	partner-non_social_feedback-informative			53.0	90
435.2897575114618	2.7810369713743057	partner-non_social_feedback-partner		2.7810369713743057		91
441.03924892147484	1.5	partner-non_social_feedback-affective				92
446.0572963235607	0.9081513727633136	partner-social_choice-choice_pentagon	0.9081513727633136			93
450.2903071506855	1.5	partner-social_feedback-informative			46.0	94
453.5393734405404	2.6400034960420267	partner-social_feedback-partner		2.6400034960420267		95
461.2892788170213	1.5	partner-social_feedback-affective				96
		partner-non_social_choice-choice_pentagon_catch	0.0			97
0.0	1.5	partner-non_social_feedback-informative_catch			48.0	98
465.539385874162	1.6107899701628412	partner-non_social_feedback-partner_catch		1.6107899701628412		99
471.28823293000846	1.5	partner-non_social_feedback-affective_catch				100
484.8065226048732	0.8792892795481748	partner-social_choice-choice_pentagon	0.8792892795481748			101
489.0395853606535	1.5	partner-social_feedback-informative			50.0	102
495.2887214982077	1.2770181688129014	partner-social_feedback-partner		1.2770181688129014		103
500.03851826334466	1.5	partner-social_feedback-affective				104
504.30590403218713	3.0	partner-social_choice-choice_star_lapse	1.1904940572771923			105
509.5392717773973	1.5	partner-social_feedback-informative_lapse			0.0	106
512.7880513625604	3.0	partner-social_feedback-partner_lapse		0.0		107
0.0	1.5	partner-social_feedback-affective_lapse				108
521.8054474622793	1.2687651694755004	partner-non_social_choice-choice_pentagon	1.2687651694755004			109
529.0387698613397	1.5	partner-non_social_feedback-informative			45.0	110
533.2876960901015	1.096345210002255	partner-non_social_feedback-partner		1.096345210002255		111
541.0373754672207	1.5	partner-non_social_feedback-affective				112
546.0549664822468	0.3646865392515792	partner-non_social_choice-choice_pentagon	0.3646865392515792			113
550.2881627166146	1.5	partner-non_social_feedback-informative			49.0	114
556.5372922716631	1.2422603446821086	partner-non_social_feedback-partner		1.2422603446821086		115
561.2872605476425	1.5	partner-non_social_feedback-affective				116
566.3046566473615	0.3807438304547759	partner-non_social_choice-choice_pentagon	0.3807438304547759			117
570.5543782622257	1.5	partner-non_social_feedback-informative			49.0	118
573.7866946350019	1.1544292400753875	partner-non_social_feedback-partner		1.1544292400753875		119
578.5362452875659	1.5	partner-non_social_feedback-affective				120
584.3041849011217	1.3717576131248277	partner-social_choice-choice_pentagon	1.3717576131248277			121
589.5531974338468	1.5	partner-social_feedback-informative			46.0	122
595.7862788400599	1.2506204925834936	partner-social_feedback-partner		1.2506204925834936		123
601.5362924621897	1.5	partner-social_feedback-affective				124
		partner-non_social_choice-choice_pentagon_catch	0.0			125
0.0	1.5	partner-non_social_feedback-informative_catch			44.0	126
605.0362206031698	1.400396998231372	partner-non_social_feedback-partner_catch		1.400396998231372		127
609.7858330581478	1.5	partner-non_social_feedback-affective_catch				128
621.5534245302928	1.2890257562476108	partner-social_choice-choice_pentagon	1.2890257562476108			129
628.8032145300765	1.5	partner-social_feedback-informative			42.0	130
633.0357283780229	1.575622933596151	partner-social_feedback-partner		1.575622933596151		131
640.7846591779693	1.5	partner-social_feedback-affective				132
645.0528311905448	0.5260610542031827	partner-social_choice-choice_pentagon	0.5260610542031827			133
650.3028095231305	1.5	partner-social_feedback-informative			42.0	134
0.0	0.0	partner-social_feedback-partner		0.0		135
0.0	1.5	partner-social_feedback-affective				136
663.8023500276647	0.9671042935856348	partner-non_social_choice-choice_pentagon	0.9671042935856348			137
669.0525379033478	1.5	partner-non_social_feedback-informative			39.0	138
673.2844922383117	1.0318556705178707	partner-non_social_feedback-partner		1.0318556705178707		139
681.0344630741545	1.5	partner-non_social_feedback-affective				140
685.3019475805816	0.8431754592488687	partner-non_social_choice-choice_pentagon	0.8431754592488687			141
689.5517357518922	1.5	partner-non_social_feedback-informative			42.0	142
0.0	0.0	partner-non_social_feedback-partner		0.0		143
0.0	1.5	partner-non_social_feedback-affective				144
701.8017155472569	1.0120229466151611	partner-non_social_choice-choice_pentagon	1.0120229466151611			145
706.0513669487269	1.5	partner-non_social_feedback-informative			44.0	146
712.2835571568111	1.2670968699817422	partner-non_social_feedback-partner		1.2670968699817422		147
718.0497140084133	1.5	partner-non_social_feedback-affective				148
723.0677003394742	1.248866986210487	partner-non_social_choice-choice_pentagon	1.248866986210487			149
727.3009667872361	1.5	partner-non_social_feedback-informative			42.0	150
731.5498736341757	1.3766359812193514	partner-non_social_feedback-partner		1.3766359812193514		151
736.2999026154855	1.5	partner-non_social_feedback-affective				152
740.5675143836892	0.9647923713146156	partner-social_choice-choice_pentagon	0.9647923713146156			153
744.7998453842554	1.5	partner-social_feedback-informative			39.0	154
0.0	0.0	partner-social_feedback-partner		0.0		155
0.0	1.5	partner-social_feedback-affective				156
760.8165320361406	0.4573034911777541	partner-non_social_choice-choice_pentagon	0.4573034911777541			157
768.0501374829448	1.5	partner-non_social_feedback-informative			36.0	158
774.2989916698392	1.6647061770599976	partner-non_social_feedback-partner		1.6647061770599976		159
779.0490864762053	1.5	partner-non_social_feedback-affective				160
