onset	duration	trial_type	choice_RT	partner_RT	points	trialn
4.783027206393854	0.6623279738723795	partner-non_social_choice-choice_pentagon	0.6623279738723795			1
9.03286255353305	1.5	partner-non_social_feedback-informative			35.0	2
12.265591556316394	1.4796516124642949	partner-non_social_feedback-partner		1.4796516124642949		3
18.01553167423663	1.5	partner-non_social_feedback-affective				4
22.282502255406147	0.5225688698765225	partner-social_choice-choice_pentagon	0.5225688698765225			5
26.532220581077127	1.5	partner-social_feedback-informative			24.0	6
29.764977010767325	1.8567386629056275	partner-social_feedback-partner		1.8567386629056275		7
34.51493577898418	1.5	partner-social_feedback-affective				8
40.28198516679731	1.0275914678186382	partner-non_social_choice-choice_pentagon	1.0275914678186382			9
44.53174225583007	1.5	partner-non_social_feedback-informative			20.0	10
47.764612781450516	1.188733685105035	partner-non_social_feedback-partner		1.188733685105035		11
52.51438248686009	1.5	partner-non_social_feedback-affective				12
57.531320978548145	0.5647664452644676	partner-social_choice-choice_pentagon	0.5647664452644676			13
62.78099395840127	1.5	partner-social_feedback-informative			40.0	14
66.01388971677534	1.257968339110448	partner-social_feedback-partner		1.257968339110448		15
70.76395307292842	1.5	partner-social_feedback-affective				16
76.53064481388266	0.7572649303856451	partner-social_choice-choice_pentagon	0.7572649303856451			17
80.78076137823518	1.5	partner-social_feedback-informative			39.0	18
85.01326218915709	1.2512677630365945	partner-social_feedback-partner		1.2512677630365945		19
89.76309479360498	1.5	partner-social_feedback-affective				20
94.02997102621613	0.8921329027434695	partner-non_social_choice-choice_pentagon	0.8921329027434695			21
101.27983709148977	1.5	partner-non_social_feedback-informative			25.0	22
104.51261363424419	1.4471719385446704	partner-non_social_feedback-partner		1.4471719385446704		23
110.2624495299215	1.5	partner-non_social_feedback-affective				24
114.5292496985785	0.4594061672505632	partner-non_social_choice-choice_pentagon	0.4594061672505632			25
118.77921852332838	1.5	partner-non_social_feedback-informative			35.0	26
123.0122349600906	1.5872093342177322	partner-non_social_feedback-partner		1.5872093342177322		27
127.76198674658735	1.5	partner-non_social_feedback-affective				28
132.77888208660988	0.4012296762048209	partner-social_choice-choice_pentagon	0.4012296762048209			29
138.02878545247586	1.5	partner-social_feedback-informative			33.0	30
141.26139523963957	1.6465370239466208	partner-social_feedback-partner		1.6465370239466208		31
149.0112241871666	1.5	partner-social_feedback-affective				32
153.27818379757358	0.5025446683739574	partner-social_choice-choice_pentagon	0.5025446683739574			33
157.5445188058984	1.5	partner-social_feedback-informative			35.0	34
160.7608669974234	1.3236067771513262	partner-social_feedback-partner		1.3236067771513262		35
168.5275349683916	1.5	partner-social_feedback-affective				36
172.77760691830917	0.7146234048059341	partner-non_social_choice-choice_pentagon	0.7146234048059341			37
177.04417194695546	1.5	partner-non_social_feedback-informative			32.0	38
183.27684792438686	0.7511959045414187	partner-non_social_feedback-partner		0.7511959045414187		39
189.0265653358274	1.5	partner-non_social_feedback-affective				40
193.29340792476702	0.4543991112213917	partner-social_choice-choice_pentagon	0.4543991112213917			41
197.52699228133682	1.5	partner-social_feedback-informative			32.0	42
200.77630798002338	1.1702271057556572	partner-social_feedback-partner		1.1702271057556572		43
206.52605354975455	1.5	partner-social_feedback-affective				44
212.29286852894163	0.3742609820073993	partner-social_choice-choice_pentagon	0.3742609820073993			45
219.54296973422612	1.5	partner-social_feedback-informative			42.0	46
222.77543214747948	1.3346360504374388	partner-social_feedback-partner		1.3346360504374388		47
228.525328016658	1.5	partner-social_feedback-affective				48
232.79234065241693	0.424443444073404	partner-social_choice-choice_pentagon	0.424443444073404			49
238.04235409160083	1.5	partner-social_feedback-informative			41.0	50
241.27481760193038	1.0335635852597989	partner-social_feedback-partner		1.0335635852597989		51
247.02476027969624	1.5	partner-social_feedback-affective				52
252.79146043156743	3.0	partner-non_social_choice-choice_star_lapse	0.6806670662463148			53
257.0415177538025	1.5	partner-non_social_feedback-informative_lapse			0.0	54
263.27421969537136	3.0	partner-non_social_feedback-partner_lapse		0.0		55
0.0	1.5	partner-non_social_feedback-affective_lapse				56
		partner-social_choice-choice_pentagon_catch	0.0			57
0.0	1.5	partner-social_feedback-informative_catch			41.0	58
273.02395392864855	1.650907044363521	partner-social_feedback-partner_catch		1.650907044363521		59
280.77379128709345	1.5	partner-social_feedback-affective_catch				60
294.540431099771	0.5836354254697653	partner-social_choice-choice_pentagon	0.5836354254697653			61
298.79027376075186	1.5	partner-social_feedback-informative			28.0	62
302.02293949880465	1.9029679935320016	partner-social_feedback-partner		1.9029679935320016		63
309.77291362608963	1.5	partner-social_feedback-affective				64
314.7896191719192	0.5789132435747888	partner-non_social_choice-choice_pentagon	0.5789132435747888			65
319.03965053001593	1.5	partner-non_social_feedback-informative			23.0	66
325.27222155381884	2.0741477271685653	partner-non_social_feedback-partner		2.0741477271685653		67
330.0221404615986	1.5	partner-non_social_feedback-affective				68
335.03913015017866	0.4138705545101402	partner-non_social_choice-choice_pentagon	0.4138705545101402			69
339.28897646808036	1.5	partner-non_social_feedback-informative			24.0	70
345.5216381835198	1.43512275003377	partner-non_social_feedback-partner		1.43512275003377		71
350.2718982820152	1.5	partner-non_social_feedback-affective				72
355.28842866133624	0.9371046182886856	partner-non_social_choice-choice_pentagon	0.9371046182886856			73
360.53829399522596	1.5	partner-non_social_feedback-informative			29.0	74
363.7710061761736	2.0132475614736904	partner-non_social_feedback-partner		2.0132475614736904		75
368.5208720586015	1.5	partner-non_social_feedback-affective				76
372.7877559707459	0.7243592251861628	partner-non_social_choice-choice_pentagon	0.7243592251861628			77
378.03767579275615	1.5	partner-non_social_feedback-informative			29.0	78
384.2703645694101	1.5175343869414064	partner-non_social_feedback-partner		1.5175343869414064		79
392.02020265923966	1.5	partner-non_social_feedback-affective				80
397.7870490879459	0.2704782996488575	partner-social_choice-choice_pentagon	0.2704782996488575			81
405.03673486702166	1.5	partner-social_feedback-informative			30.0	82
408.26948252010146	1.2937048667399722	partner-social_feedback-partner		1.2937048667399722		83
414.01951113550695	1.5	partner-social_feedback-affective				84
418.2862421883601	0.3456755631023043	partner-non_social_choice-choice_pentagon	0.3456755631023043			85
422.5528946174145	1.5	partner-non_social_feedback-informative			29.0	86
426.7692486600126	0.7677273809385952	partner-non_social_feedback-partner		0.7677273809385952		87
434.535633950999	1.5	partner-non_social_feedback-affective				88
		partner-non_social_choice-choice_pentagon_catch	0.0			89
0.0	1.5	partner-non_social_feedback-informative_catch			38.0	90
438.0352446717752	1.2572585307734698	partner-non_social_feedback-partner_catch		1.2572585307734698		91
443.7851522431001	1.5	partner-non_social_feedback-affective_catch				92
455.5518030265412	0.8062428027224087	partner-social_choice-choice_pentagon	0.8062428027224087			93
460.80175685791534	1.5	partner-social_feedback-informative			26.0	94
464.0344620907127	1.1564514849105765	partner-social_feedback-partner		1.1564514849105765		95
468.78435174312654	1.5	partner-social_feedback-affective				96
473.8012847494329	1.9371495984150895	partner-non_social_choice-choice_pentagon	1.9371495984150895			97
479.0510081947942	1.5	partner-non_social_feedback-informative			24.0	98
483.2838026564605	1.0445204515126534	partner-non_social_feedback-partner		1.0445204515126534		99
488.0338451681655	1.5	partner-non_social_feedback-affective				100
492.3007725976677	0.4322736429985525	partner-non_social_choice-choice_pentagon	0.4322736429985525			101
497.5505238356272	1.5	partner-non_social_feedback-informative			26.0	102
501.7832996469969	1.2395411149436768	partner-non_social_feedback-partner		1.2395411149436768		103
506.5331677235781	1.5	partner-non_social_feedback-affective				104
510.8001675601136	0.6145422577310455	partner-social_choice-choice_pentagon	0.6145422577310455			105
518.0500610522931	1.5	partner-social_feedback-informative			28.0	106
521.2826079404184	0.9748594005350242	partner-social_feedback-partner		0.9748594005350242		107
529.0323663093732	1.5	partner-social_feedback-affective				108
534.0493494154962	0.5306075132903061	partner-social_choice-choice_pentagon	0.5306075132903061			109
538.2995314387317	1.5	partner-social_feedback-informative			32.0	110
542.5319104741893	1.4661725679006852	partner-social_feedback-partner		1.4661725679006852		111
547.2818366958109	1.5	partner-social_feedback-affective				112
551.5489140590689	0.29472734180944826	partner-social_choice-choice_pentagon	0.29472734180944826			113
555.7986071519863	1.5	partner-social_feedback-informative			33.0	114
0.0	0.0	partner-social_feedback-partner		0.0		115
0.0	1.5	partner-social_feedback-affective				116
568.0481583563751	0.5029944696379971	partner-social_choice-choice_pentagon	0.5029944696379971			117
573.2980789097693	1.5	partner-social_feedback-informative			48.0	118
579.5309644287654	1.3060367352327376	partner-social_feedback-partner		1.3060367352327376		119
584.280799593058	1.5	partner-social_feedback-affective				120
		partner-social_choice-choice_pentagon_catch	0.0			121
0.0	1.5	partner-social_feedback-informative_catch			56.0	122
587.7806041306385	1.4061496975182308	partner-social_feedback-partner_catch		1.4061496975182308		123
593.5304268614	1.5	partner-social_feedback-affective_catch				124
609.7969505668408	0.6892034165884979	partner-non_social_choice-choice_pentagon	0.6892034165884979			125
617.0469003756025	1.5	partner-non_social_feedback-informative			29.0	126
621.2795909807164	1.3403280477423325	partner-non_social_feedback-partner		1.3403280477423325		127
626.0294104202494	1.5	partner-non_social_feedback-affective				128
630.2961732883141	0.3914452187764255	partner-social_choice-choice_pentagon	0.3914452187764255			129
635.5461783165803	1.5	partner-social_feedback-informative			24.0	130
638.7790126386844	1.3604506204146674	partner-social_feedback-partner		1.3604506204146674		131
643.5290054162651	1.5	partner-social_feedback-affective				132
648.5457570392982	0.6654027129234237	partner-social_choice-choice_pentagon	0.6654027129234237			133
652.8125528196507	1.5	partner-social_feedback-informative			49.0	134
0.0	0.0	partner-social_feedback-partner		0.0		135
0.0	1.5	partner-social_feedback-affective				136
665.2950641442203	0.6315904570456041	partner-non_social_choice-choice_pentagon	0.6315904570456041			137
669.5617198645041	1.5	partner-non_social_feedback-informative			21.0	138
672.7779466462563	1.3214835689059328	partner-non_social_feedback-partner		1.3214835689059328		139
677.5444456674812	1.5	partner-non_social_feedback-affective				140
682.5612605552451	0.30314081961114425	partner-non_social_choice-choice_pentagon	0.30314081961114425			141
687.8112227975371	1.5	partner-non_social_feedback-informative			15.0	142
692.0441320865184	1.169937843315893	partner-non_social_feedback-partner		1.169937843315893		143
697.7938242652052	1.5	partner-non_social_feedback-affective				144
702.8106727966415	0.4562509759407476	partner-non_social_choice-choice_pentagon	0.4562509759407476			145
707.0605366677628	1.5	partner-non_social_feedback-informative			46.0	146
711.2936825595226	1.3059760303467556	partner-non_social_feedback-partner		1.3059760303467556		147
716.0435049245924	1.5	partner-non_social_feedback-affective				148
720.3101847805538	0.5161992451385231	partner-non_social_choice-choice_pentagon	0.5161992451385231			149
724.560040972141	1.5	partner-non_social_feedback-informative			45.0	150
728.7927575413933	1.7054225919455348	partner-non_social_feedback-partner		1.7054225919455348		151
733.5426091618301	1.5	partner-non_social_feedback-affective				152
739.3094599788409	0.3214587018437669	partner-non_social_choice-choice_pentagon	0.3214587018437669			153
746.5594854858638	1.5	partner-non_social_feedback-informative			41.0	154
0.0	0.0	partner-non_social_feedback-partner		0.0		155
0.0	1.5	partner-non_social_feedback-affective				156
757.8088973615686	0.5637856590929005	partner-social_choice-choice_pentagon	0.5637856590929005			157
765.0588372966431	1.5	partner-social_feedback-informative			41.0	158
771.2914317247397	2.3296191207218726	partner-social_feedback-partner		2.3296191207218726		159
779.0412438504309	1.5	partner-social_feedback-affective				160
