index,onset,duration,trial_type,choice_RT,partner_RT,points,trialn
0,4.782958635018076,0.6035027834959692,partner-social_choice-choice_pentagon,0.6035027834959692,,,1
1,9.032806962561152,1.5,partner-social_feedback-informative,,,24.0,2
2,12.266042082113016,1.335333812882709,partner-social_feedback-partner,,1.335333812882709,,3
3,17.01596446311669,1.5,partner-social_feedback-affective,,,,4
0,,,partner-social_choice-choice_pentagon_catch,0.0,,,5
1,0.0,1.5,partner-social_feedback-informative_catch,,,24.0,6
2,20.51586737080288,1.6804543847147215,partner-social_feedback-partner_catch,,1.6804543847147215,,7
3,26.2657568391578,1.5,partner-social_feedback-affective_catch,,,,8
0,43.78212265373986,0.8077894000061859,partner-social_choice-choice_pentagon,0.8077894000061859,,,9
1,48.03208617555447,1.5,partner-social_feedback-informative,,,20.0,10
2,51.265222922856076,1.4595585828683395,partner-social_feedback-partner,,1.4595585828683395,,11
3,59.015086792484,1.5,partner-social_feedback-affective,,,,12
0,63.28172532493045,1.0839053125037026,partner-non_social_choice-choice_pentagon,1.0839053125037026,,,13
1,68.53160254246632,1.5,partner-non_social_feedback-informative,,,40.0,14
2,71.76479633835879,1.2689482689957003,partner-non_social_feedback-partner,,1.2689482689957003,,15
3,76.51470482291006,1.5,partner-non_social_feedback-affective,,,,16
0,82.28133658997922,0.7740440612597013,partner-social_choice-choice_pentagon,0.7740440612597013,,,17
1,87.53130925419646,1.5,partner-social_feedback-informative,,,39.0,18
2,0.0,0.0,partner-social_feedback-partner,,0.0,,19
3,0.0,1.5,partner-social_feedback-affective,,,,20
0,98.03099640118491,0.6802474007236015,partner-social_choice-choice_pentagon,0.6802474007236015,,,21
1,102.2809617514795,1.5,partner-social_feedback-informative,,,31.0,22
2,105.51410325283086,1.317985190039508,partner-social_feedback-partner,,1.317985190039508,,23
3,111.26398906422399,1.5,partner-social_feedback-affective,,,,24
0,115.53062028274964,0.7433032816470586,partner-social_choice-choice_pentagon,0.7433032816470586,,,25
1,119.78059440975085,1.5,partner-social_feedback-informative,,,35.0,26
2,123.01378308589756,1.5430477332147348,partner-social_feedback-partner,,1.5430477332147348,,27
3,128.76363635033886,1.5,partner-social_feedback-affective,,,,28
0,133.78024919263498,0.5084484940816765,partner-non_social_choice-choice_pentagon,0.5084484940816765,,,29
1,139.03016627104444,1.5,partner-non_social_feedback-informative,,,33.0,30
2,142.2633198403664,1.313201885090166,partner-non_social_feedback-partner,,1.313201885090166,,31
3,147.0133223088151,1.5,partner-non_social_feedback-affective,,,,32
0,152.02986786302972,0.5066810848447858,partner-social_choice-choice_pentagon,0.5066810848447858,,,33
1,156.2798207796568,1.5,partner-social_feedback-informative,,,30.0,34
2,159.51295533278244,1.7353709676062865,partner-social_feedback-partner,,1.7353709676062865,,35
3,167.26280420886997,1.5,partner-social_feedback-affective,,,,36
0,171.52944895815017,0.4226931250232155,partner-non_social_choice-choice_pentagon,0.4226931250232155,,,37
1,178.77935396858902,1.5,partner-non_social_feedback-informative,,,32.0,38
2,183.0124687741245,1.3015486132626393,partner-non_social_feedback-partner,,1.3015486132626393,,39
3,187.7623783557647,1.5,partner-non_social_feedback-affective,,,,40
0,192.0290326131444,0.4489292601128909,partner-non_social_choice-choice_pentagon,0.4489292601128909,,,41
1,197.27896468509425,1.5,partner-non_social_feedback-informative,,,44.0,42
2,203.51205096633385,1.1557240033043854,partner-non_social_feedback-partner,,1.1557240033043854,,43
3,208.26195067417942,1.5,partner-non_social_feedback-affective,,,,44
0,212.528608954216,0.6439198818361547,partner-social_choice-choice_pentagon,0.6439198818361547,,,45
1,216.7785508999605,1.5,partner-social_feedback-informative,,,42.0,46
2,221.01167850485942,1.5579260789218097,partner-social_feedback-partner,,1.5579260789218097,,47
3,225.76159247485248,1.5,partner-social_feedback-affective,,,,48
0,230.02823320147584,0.5400885203971484,partner-non_social_choice-choice_pentagon,0.5400885203971484,,,49
1,235.2781374805227,1.5,partner-non_social_feedback-informative,,,41.0,50
2,238.51130823756102,1.3428525246381469,partner-non_social_feedback-partner,,1.3428525246381469,,51
3,244.2612042884457,1.5,partner-non_social_feedback-affective,,,,52
0,,,partner-social_choice-choice_pentagon_catch,0.0,,,53
1,0.0,1.5,partner-social_feedback-informative_catch,,,27.0,54
2,247.76112036119142,1.562909419636526,partner-social_feedback-partner_catch,,1.562909419636526,,55
3,252.5110299428316,1.5,partner-social_feedback-affective_catch,,,,56
0,263.2775187227262,0.4593611069767576,partner-non_social_choice-choice_pentagon,0.4593611069767576,,,57
1,268.5275462413574,1.5,partner-non_social_feedback-informative,,,41.0,58
2,272.76065738993196,1.2852210139217275,partner-non_social_feedback-partner,,1.2852210139217275,,59
3,278.5271439756507,1.5,partner-non_social_feedback-affective,,,,60
0,283.54377656553606,0.8927124447482129,partner-non_social_choice-choice_pentagon,0.8927124447482129,,,61
1,290.7770328954612,1.5,partner-non_social_feedback-informative,,,39.0,62
2,295.02679089606954,1.3076561037787542,partner-non_social_feedback-partner,,1.3076561037787542,,63
3,299.7767066945425,1.5,partner-non_social_feedback-affective,,,,64
0,304.7933316048102,0.5628428629470363,partner-social_choice-choice_pentagon,0.5628428629470363,,,65
1,310.04329988067366,1.5,partner-social_feedback-informative,,,23.0,66
2,314.27644686746584,1.9656516283903331,partner-social_feedback-partner,,1.9656516283903331,,67
3,322.0262397920505,1.5,partner-social_feedback-affective,,,,68
0,327.04286616510313,0.6522047269145332,partner-non_social_choice-choice_pentagon,0.6522047269145332,,,69
1,331.2927357030203,1.5,partner-non_social_feedback-informative,,,24.0,70
2,337.52590353448977,1.2518004133098657,partner-non_social_feedback-partner,,1.2518004133098657,,71
3,345.27583249802325,1.5,partner-non_social_feedback-affective,,,,72
0,350.2923864632476,1.8782882935929592,partner-social_choice-choice_pentagon,1.8782882935929592,,,73
1,357.5424004511233,1.5,partner-social_feedback-informative,,,32.0,74
2,361.7754476028804,1.1951709098993888,partner-social_feedback-partner,,1.1951709098993888,,75
3,369.52524564721085,1.5,partner-social_feedback-affective,,,,76
0,373.79198620886933,0.6952972579010748,partner-social_choice-choice_pentagon,0.6952972579010748,,,77
1,378.04187293450286,1.5,partner-social_feedback-informative,,,27.0,78
2,382.2749650668811,1.3581920131236984,partner-social_feedback-partner,,1.3581920131236984,,79
3,387.0249569301423,1.5,partner-social_feedback-affective,,,,80
0,392.0415076041026,0.6295758181267956,partner-non_social_choice-choice_pentagon,0.6295758181267956,,,81
1,396.2915197634975,1.5,partner-non_social_feedback-informative,,,27.0,82
2,400.52457605765716,1.3164591402264705,partner-non_social_feedback-partner,,1.3164591402264705,,83
3,405.27448673638634,1.5,partner-non_social_feedback-affective,,,,84
0,409.54114684490287,1.094561331075056,partner-non_social_choice-choice_pentagon,1.094561331075056,,,85
1,416.79101638282015,1.5,partner-non_social_feedback-informative,,,33.0,86
2,421.0241549586017,1.486526110153136,partner-non_social_feedback-partner,,1.486526110153136,,87
3,425.77404369556467,1.5,partner-non_social_feedback-affective,,,,88
0,431.5407390937543,0.6646683812932679,partner-non_social_choice-choice_pentagon,0.6646683812932679,,,89
1,435.79059766078905,1.5,partner-non_social_feedback-informative,,,38.0,90
2,442.0237153918934,1.215618441468905,partner-non_social_feedback-partner,,1.215618441468905,,91
3,447.7736520350445,1.5,partner-non_social_feedback-affective,,,,92
0,452.79024330127055,0.7428256825442077,partner-non_social_choice-choice_pentagon,0.7428256825442077,,,93
1,457.04017866448515,1.5,partner-non_social_feedback-informative,,,26.0,94
2,460.2733336965921,1.498636136406276,partner-non_social_feedback-partner,,1.498636136406276,,95
3,468.0231774529348,1.5,partner-non_social_feedback-affective,,,,96
0,,,partner-non_social_choice-choice_pentagon_catch,0.0,,,97
1,0.0,1.5,partner-non_social_feedback-informative_catch,,,24.0,98
2,472.2731124504535,1.8467565133214519,partner-non_social_feedback-partner_catch,,1.8467565133214519,,99
3,480.0229309737651,1.5,partner-non_social_feedback-affective_catch,,,,100
0,492.7893846468351,0.5510787852008434,partner-non_social_choice-choice_pentagon,0.5510787852008434,,,101
1,497.0394242334378,1.5,partner-non_social_feedback-informative,,,47.0,102
2,500.2725514726408,1.3990007719849018,partner-non_social_feedback-partner,,1.3990007719849018,,103
3,505.0223988859434,1.5,partner-non_social_feedback-affective,,,,104
0,510.78901090542325,0.7423583229319775,partner-social_choice-choice_pentagon,0.7423583229319775,,,105
1,516.0555821497892,1.5,partner-social_feedback-informative,,,28.0,106
2,519.2720925240383,1.826070182200965,partner-social_feedback-partner,,1.826070182200965,,107
3,525.0219691930297,1.5,partner-social_feedback-affective,,,,108
0,530.7886459407191,0.7374601894089209,partner-non_social_choice-choice_pentagon,0.7374601894089209,,,109
1,535.0385615563446,1.5,partner-non_social_feedback-informative,,,51.0,110
2,0.0,0.0,partner-non_social_feedback-partner,,0.0,,111
3,0.0,1.5,partner-non_social_feedback-affective,,,,112
0,545.5383393959655,0.4784065597095832,partner-non_social_choice-choice_pentagon,0.4784065597095832,,,113
1,549.7882590342479,1.5,partner-non_social_feedback-informative,,,33.0,114
2,553.0213866391468,1.3433685218315077,partner-non_social_feedback-partner,,1.3433685218315077,,115
3,557.771294026611,1.5,partner-non_social_feedback-affective,,,,116
0,562.0380016756199,0.4775947143753001,partner-social_choice-choice_pentagon,0.4775947143753001,,,117
1,569.3044774733036,1.5,partner-social_feedback-informative,,,48.0,118
2,0.0,0.0,partner-social_feedback-partner,,0.0,,119
3,0.0,1.5,partner-social_feedback-affective,,,,120
0,580.8042048468633,3.0,partner-non_social_choice-choice_star_lapse,0.0,,,121
1,0.0,1.5,partner-non_social_feedback-informative_lapse,,,0.0,122
2,0.0,3.0,partner-non_social_feedback-partner_lapse,,0.0,,123
3,0.0,1.5,partner-non_social_feedback-affective_lapse,,,,124
0,601.8038087979903,0.32321939827670576,partner-social_choice-choice_pentagon,0.32321939827670576,,,125
1,606.0537006433698,1.5,partner-social_feedback-informative,,,29.0,126
2,610.2868849311635,1.524079442357106,partner-social_feedback-partner,,1.524079442357106,,127
3,615.036810969128,1.5,partner-social_feedback-affective,,,,128
0,619.3033997669054,0.9794102126488724,partner-non_social_choice-choice_pentagon,0.9794102126488724,,,129
1,626.5533084343051,1.5,partner-non_social_feedback-informative,,,24.0,130
2,632.7863702139066,1.3372262901857541,partner-non_social_feedback-partner,,1.3372262901857541,,131
3,637.5363159994604,1.5,partner-non_social_feedback-affective,,,,132
0,642.5529643142781,1.1395306144313508,partner-social_choice-choice_pentagon,1.1395306144313508,,,133
1,646.802868959021,1.5,partner-social_feedback-informative,,,49.0,134
2,650.0360558066877,1.4193583423138991,partner-social_feedback-partner,,1.4193583423138991,,135
3,655.7858929805006,1.5,partner-social_feedback-affective,,,,136
0,661.5524969546659,0.5617216387136068,partner-social_choice-choice_pentagon,0.5617216387136068,,,137
1,665.8024977774821,1.5,partner-social_feedback-informative,,,47.0,138
2,672.0355533402499,1.3556657844865183,partner-social_feedback-partner,,1.3556657844865183,,139
3,676.7854647503709,1.5,partner-social_feedback-affective,,,,140
0,682.5520625077032,1.22785536426818,partner-non_social_choice-choice_pentagon,1.22785536426818,,,141
1,686.802078324059,1.5,partner-non_social_feedback-informative,,,46.0,142
2,690.0351649709955,1.4675611105603816,partner-non_social_feedback-partner,,1.4675611105603816,,143
3,697.7850511480847,1.5,partner-non_social_feedback-affective,,,,144
0,702.0516618876281,0.8459439365942671,partner-social_choice-choice_pentagon,0.8459439365942671,,,145
1,707.301591399706,1.5,partner-social_feedback-informative,,,46.0,146
2,710.53479909205,1.6737541008251355,partner-social_feedback-partner,,1.6737541008251355,,147
3,716.28463370599,1.5,partner-social_feedback-affective,,,,148
0,721.3012513023358,0.45710403066550503,partner-social_choice-choice_pentagon,0.45710403066550503,,,149
1,725.5513373323429,1.5,partner-social_feedback-informative,,,45.0,150
2,731.7843998433364,2.019747589240069,partner-social_feedback-partner,,2.019747589240069,,151
3,737.5341887452641,1.5,partner-social_feedback-affective,,,,152
0,743.3007919880374,3.0,partner-non_social_choice-choice_star_lapse,1.9851754116189115,,,153
1,748.5507215001152,1.5,partner-non_social_feedback-informative_lapse,,,0.0,154
2,751.7838699496915,3.0,partner-non_social_feedback-partner_lapse,,0.0,,155
3,0.0,1.5,partner-non_social_feedback-affective_lapse,,,,156
0,760.8004334230145,0.5343598910367291,partner-social_choice-choice_pentagon,0.5343598910367291,,,157
1,768.0503175887761,1.5,partner-social_feedback-informative,,,22.0,158
2,774.2833987502709,0.7508816018653306,partner-social_feedback-partner,,0.7508816018653306,,159
3,779.0333606264521,1.5,partner-social_feedback-affective,,,,160
