index,onset,duration,trial_type,choice_RT,partner_RT,points,trialn
0,4.8172681796922925,0.6227814670285171,partner-social_choice-choice_pentagon,0.6227814670285171,,,1
1,8.815791138557643,1.5,partner-social_feedback-informative,,,47.0,2
2,12.282848074672074,1.4571210094932212,partner-social_feedback-partner,,1.4571210094932212,,3
3,17.30015238500641,1.5,partner-social_feedback-affective,,,,4
0,21.300230277990295,0.7806577459086839,partner-social_choice-choice_pentagon,0.7806577459086839,,,5
1,26.28224284984458,1.5,partner-social_feedback-informative,,,47.0,6
2,29.78245476995789,1.638346898780355,partner-social_feedback-partner,,1.638346898780355,,7
3,34.79882070753888,1.5,partner-social_feedback-affective,,,,8
0,38.79977517086172,1.1577358520926282,partner-social_choice-choice_pentagon,1.1577358520926282,,,9
1,42.78225071228189,1.5,partner-social_feedback-informative,,,51.0,10
2,47.28206219663343,1.17720909804666,partner-social_feedback-partner,,1.17720909804666,,11
3,52.29948535776475,1.5,partner-social_feedback-affective,,,,12
0,56.299586289518395,0.9485434560567684,partner-non_social_choice-choice_pentagon,0.9485434560567684,,,13
1,63.28145002360565,1.5,partner-non_social_feedback-informative,,,50.0,14
2,66.78204702030075,1.038047614189054,partner-non_social_feedback-partner,,1.038047614189054,,15
3,74.79919005924626,1.5,partner-non_social_feedback-affective,,,,16
0,78.79888616690094,0.8609463960963241,partner-non_social_choice-choice_pentagon,0.8609463960963241,,,17
1,82.78142314504089,1.5,partner-non_social_feedback-informative,,,50.0,18
2,87.2812463316245,1.4453511236520171,partner-non_social_feedback-partner,,1.4453511236520171,,19
3,93.2977885340797,1.5,partner-non_social_feedback-affective,,,,20
0,97.29820323193712,1.0962691454919875,partner-non_social_choice-choice_pentagon,1.0962691454919875,,,21
1,101.28053322684308,1.5,partner-non_social_feedback-informative,,,50.0,22
2,107.7804514940642,1.3178662734717363,partner-non_social_feedback-partner,,1.3178662734717363,,23
3,115.79748665305556,1.5,partner-non_social_feedback-affective,,,,24
0,121.29800465968263,0.381075515602106,partner-social_choice-choice_pentagon,0.381075515602106,,,25
1,128.2963952370451,1.5,partner-social_feedback-informative,,,64.0,26
2,132.78041858153594,1.5654525966338042,partner-social_feedback-partner,,1.5654525966338042,,27
3,137.79763037109615,1.5,partner-social_feedback-affective,,,,28
0,143.3139844235975,0.8388438048198168,partner-non_social_choice-choice_pentagon,0.8388438048198168,,,29
1,147.2965725990036,1.5,partner-non_social_feedback-informative,,,65.0,30
2,153.79610030422143,1.3244703551372368,partner-non_social_feedback-partner,,1.3244703551372368,,31
3,161.79685326973163,1.5,partner-non_social_feedback-affective,,,,32
0,165.8137501961039,0.6734481102905647,partner-social_choice-choice_pentagon,0.6734481102905647,,,33
1,169.79587905889184,1.5,partner-social_feedback-informative,,,64.0,34
2,173.29541736925785,1.2476576336403014,partner-social_feedback-partner,,1.2476576336403014,,35
3,179.29661721376442,1.5,partner-social_feedback-affective,,,,36
0,184.06313683456824,0.4878499744563669,partner-social_choice-choice_pentagon,0.4878499744563669,,,37
1,188.04561420446225,1.5,partner-social_feedback-informative,,,65.0,38
2,191.5453218315017,1.1594780219277254,partner-social_feedback-partner,,1.1594780219277254,,39
3,196.5462411881276,1.5,partner-social_feedback-affective,,,,40
0,200.56277753946662,0.7518468499602022,partner-non_social_choice-choice_pentagon,0.7518468499602022,,,41
1,207.54491481323433,1.5,partner-non_social_feedback-informative,,,66.0,42
2,211.0450883353976,1.1513087666905903,partner-non_social_feedback-partner,,1.1513087666905903,,43
3,219.04571038218387,1.5,partner-non_social_feedback-affective,,,,44
0,223.0622152837736,0.5239981700633507,partner-social_choice-choice_pentagon,0.5239981700633507,,,45
1,227.04460671539917,1.5,partner-social_feedback-informative,,,66.0,46
2,233.54418634927288,1.6159082340197983,partner-social_feedback-partner,,1.6159082340197983,,47
3,238.5455427111367,1.5,partner-social_feedback-affective,,,,48
0,,,partner-non_social_choice-choice_pentagon_catch,0.0,,,49
1,0.0,1.5,partner-non_social_feedback-informative_catch,,,73.0,50
2,242.56071392393775,1.593057796959556,partner-non_social_feedback-partner_catch,,1.593057796959556,,51
3,247.56182015058587,1.5,partner-non_social_feedback-affective_catch,,,,52
0,262.06154130833147,1.1629645557666208,partner-social_choice-choice_pentagon,1.1629645557666208,,,53
1,267.04399417667673,1.5,partner-social_feedback-informative,,,65.0,54
2,270.5438283341032,1.201664569407285,partner-social_feedback-partner,,1.201664569407285,,55
3,276.5446489531439,1.5,partner-social_feedback-affective,,,,56
0,281.3112409815101,0.532901740377838,partner-social_choice-choice_pentagon,0.532901740377838,,,57
1,288.29282934744333,1.5,partner-social_feedback-informative,,,65.0,58
2,292.7930657691054,1.393071400804729,partner-social_feedback-partner,,1.393071400804729,,59
3,297.810045708188,1.5,partner-social_feedback-affective,,,,60
0,301.81058474226387,0.4161957432399959,partner-non_social_choice-choice_pentagon,0.4161957432399959,,,61
1,305.7928591515663,1.5,partner-non_social_feedback-informative,,,71.0,62
2,309.29269367468737,1.3438989863307145,partner-non_social_feedback-partner,,1.3438989863307145,,63
3,317.3099599527668,1.5,partner-non_social_feedback-affective,,,,64
0,321.3102803013764,0.6553396371793951,partner-social_choice-choice_pentagon,0.6553396371793951,,,65
1,328.3119292190479,1.5,partner-social_feedback-informative,,,64.0,66
2,0.0,0.0,partner-social_feedback-partner,,0.0,,67
3,0.0,1.5,partner-social_feedback-affective,,,,68
0,340.5597854249429,0.9332778940076878,partner-non_social_choice-choice_pentagon,0.9332778940076878,,,69
1,345.54182688668334,1.5,partner-non_social_feedback-informative,,,83.0,70
2,350.0419217844735,1.2520222005973665,partner-non_social_feedback-partner,,1.2520222005973665,,71
3,356.05932080975066,1.5,partner-non_social_feedback-affective,,,,72
0,361.5588104827134,0.6389331074801703,partner-social_choice-choice_pentagon,0.6389331074801703,,,73
1,365.541728514793,1.5,partner-social_feedback-informative,,,83.0,74
2,370.0412756018332,1.1482639921214286,partner-social_feedback-partner,,1.1482639921214286,,75
3,378.05889952938736,1.5,partner-social_feedback-affective,,,,76
0,382.0586614620988,0.90573669026503,partner-non_social_choice-choice_pentagon,0.90573669026503,,,77
1,386.04092490055865,1.5,partner-non_social_feedback-informative,,,83.0,78
2,390.54094921926,1.204581716505345,partner-non_social_feedback-partner,,1.204581716505345,,79
3,398.5583701862228,1.5,partner-non_social_feedback-affective,,,,80
0,404.0582979615078,0.6727174521606685,partner-social_choice-choice_pentagon,0.6727174521606685,,,81
1,408.0568296970475,1.5,partner-social_feedback-informative,,,82.0,82
2,412.5404588225872,1.0875041734914248,partner-social_feedback-partner,,1.0875041734914248,,83
3,418.55764793907247,1.5,partner-social_feedback-affective,,,,84
0,423.3077983310423,0.5718464038125148,partner-non_social_choice-choice_pentagon,0.5718464038125148,,,85
1,428.3070687699967,1.5,partner-non_social_feedback-informative,,,85.0,86
2,432.8063298837346,1.4652485755275393,partner-non_social_feedback-partner,,1.4652485755275393,,87
3,438.807472314164,1.5,partner-non_social_feedback-affective,,,,88
0,444.3239386349567,1.0092027086279811,partner-non_social_choice-choice_pentagon,1.0092027086279811,,,89
1,451.30627228681016,1.5,partner-non_social_feedback-informative,,,81.0,90
2,0.0,0.0,partner-non_social_feedback-partner,,0.0,,91
3,0.0,1.5,partner-non_social_feedback-affective,,,,92
0,,,partner-non_social_choice-choice_pentagon_catch,0.0,,,93
1,0.0,1.5,partner-non_social_feedback-informative_catch,,,53.0,94
2,465.0558851074832,1.1410616338291677,partner-non_social_feedback-partner_catch,,1.1410616338291677,,95
3,470.0567141375034,1.5,partner-non_social_feedback-affective_catch,,,,96
0,484.3232449119972,1.3304238658249687,partner-social_choice-choice_pentagon,1.3304238658249687,,,97
1,489.3054922598876,1.5,partner-social_feedback-informative,,,76.0,98
2,492.80541491544585,1.24006690751321,partner-social_feedback-partner,,1.24006690751321,,99
3,498.8060713375396,1.5,partner-social_feedback-affective,,,,100
0,502.82303628313707,1.9391933724407409,partner-non_social_choice-choice_pentagon,1.9391933724407409,,,101
1,507.8052152461071,1.5,partner-non_social_feedback-informative,,,81.0,102
2,511.3053280629406,1.4448033129019675,partner-non_social_feedback-partner,,1.4448033129019675,,103
3,516.3056802269941,1.5,partner-non_social_feedback-affective,,,,104
0,520.3224389207471,0.8744372414766985,partner-social_choice-choice_pentagon,0.8744372414766985,,,105
1,527.3045802171569,1.5,partner-social_feedback-informative,,,80.0,106
2,530.8046242833755,1.7711946626118331,partner-social_feedback-partner,,1.7711946626118331,,107
3,536.8052880193643,1.5,partner-social_feedback-affective,,,,108
0,541.5718990638579,0.6226461599674167,partner-social_choice-choice_pentagon,0.6226461599674167,,,109
1,546.5539430854617,1.5,partner-social_feedback-informative,,,80.0,110
2,0.0,0.0,partner-social_feedback-partner,,0.0,,111
3,0.0,1.5,partner-social_feedback-affective,,,,112
0,562.0713817886203,1.0946652082759556,partner-non_social_choice-choice_pentagon,1.0946652082759556,,,113
1,567.0534071597915,1.5,partner-non_social_feedback-informative,,,82.0,114
2,570.5538092411797,2.156169581436643,partner-non_social_feedback-partner,,2.156169581436643,,115
3,575.5545611096056,1.5,partner-non_social_feedback-affective,,,,116
0,580.3208978830296,0.6288081166683241,partner-non_social_choice-choice_pentagon,0.6288081166683241,,,117
1,584.3033094278669,1.5,partner-non_social_feedback-informative,,,56.0,118
2,588.8034039599622,1.1923645859731096,partner-non_social_feedback-partner,,1.1923645859731096,,119
3,593.8206801118001,1.5,partner-non_social_feedback-affective,,,,120
0,598.5706977565724,0.5928200953660507,partner-social_choice-choice_pentagon,0.5928200953660507,,,121
1,605.5527655483356,1.5,partner-social_feedback-informative,,,81.0,122
2,609.0526786958302,1.6665726831133725,partner-social_feedback-partner,,1.6665726831133725,,123
3,614.0704339078034,1.5,partner-social_feedback-affective,,,,124
0,619.5701645736127,0.5649918212368448,partner-social_choice-choice_pentagon,0.5649918212368448,,,125
1,624.5527750563992,1.5,partner-social_feedback-informative,,,79.0,126
2,629.0523832144643,1.2566727408566294,partner-social_feedback-partner,,1.2566727408566294,,127
3,634.0690790087185,1.5,partner-social_feedback-affective,,,,128
0,638.0696769196506,1.2290997216698545,partner-non_social_choice-choice_pentagon,1.2290997216698545,,,129
1,642.0521531924604,1.5,partner-non_social_feedback-informative,,,79.0,130
2,645.5518242500241,1.2889229960201192,partner-non_social_feedback-partner,,1.2889229960201192,,131
3,650.5682135920698,1.5,partner-non_social_feedback-affective,,,,132
0,654.5693070194012,0.663226941756875,partner-social_choice-choice_pentagon,0.663226941756875,,,133
1,658.5515404708907,1.5,partner-social_feedback-informative,,,80.0,134
2,662.0516006276786,1.846720138554474,partner-social_feedback-partner,,1.846720138554474,,135
3,668.0690961963724,1.5,partner-social_feedback-affective,,,,136
0,672.0689788083544,0.6633128800256145,partner-non_social_choice-choice_pentagon,0.6633128800256145,,,137
1,676.0522457132348,1.5,partner-non_social_feedback-informative,,,82.0,138
2,679.5513027692966,1.4979109686851189,partner-non_social_feedback-partner,,1.4979109686851189,,139
3,687.568651328697,1.5,partner-non_social_feedback-affective,,,,140
0,692.3186634880478,0.9082062269771995,partner-non_social_choice-choice_pentagon,0.9082062269771995,,,141
1,697.3171740132916,1.5,partner-non_social_feedback-informative,,,54.0,142
2,703.8005610489002,1.0910141117951753,partner-non_social_feedback-partner,,1.0910141117951753,,143
3,709.8177991684835,1.5,partner-non_social_feedback-affective,,,,144
0,713.8179249674806,0.5685211413624529,partner-social_choice-choice_pentagon,0.5685211413624529,,,145
1,717.8169247923129,1.5,partner-social_feedback-informative,,,88.0,146
2,722.3006233998568,1.2528647613237354,partner-social_feedback-partner,,1.2528647613237354,,147
3,728.3178483544284,1.5,partner-social_feedback-affective,,,,148
0,,,partner-non_social_choice-choice_pentagon_catch,0.0,,,149
1,0.0,1.5,partner-non_social_feedback-informative_catch,,,54.0,150
2,733.0667791543747,1.1972780607645743,partner-non_social_feedback-partner_catch,,1.1972780607645743,,151
3,738.0675803915933,1.5,partner-non_social_feedback-affective_catch,,,,152
0,749.3338643221247,1.2119943492846232,partner-non_social_choice-choice_pentagon,1.2119943492846232,,,153
1,753.3161899286931,1.5,partner-non_social_feedback-informative,,,87.0,154
2,756.8161725581923,1.2354309950444529,partner-non_social_feedback-partner,,1.2354309950444529,,155
3,761.8169961027909,1.5,partner-non_social_feedback-affective,,,,156
0,765.8336194894828,0.8118599198908214,partner-social_choice-choice_pentagon,0.8118599198908214,,,157
1,770.8157340901753,1.5,partner-social_feedback-informative,,,92.0,158
2,774.3156468719751,1.3926823015804075,partner-social_feedback-partner,,1.3926823015804075,,159
3,779.3165413613574,1.5,partner-social_feedback-affective,,,,160
