onset	duration	trial_type	choice_RT	partner_RT	points	trialn
4.783290016788669	0.9756429005301469	partner-social_choice-choice_pentagon	0.9756429005301469			1
9.033058074886867	1.5	partner-social_feedback-informative			32.0	2
12.26616873668172	1.5165939482649264	partner-social_feedback-partner		1.5165939482649264		3
17.01576839234258	1.5	partner-social_feedback-affective				4
21.28259574528784	0.6099967782301974	partner-social_choice-choice_pentagon	0.6099967782301974			5
26.532684517689628	1.5	partner-social_feedback-informative			71.0	6
32.76543716431479	1.3069477250319324	partner-social_feedback-partner		1.3069477250319324		7
40.51522588416629	1.5	partner-social_feedback-affective				8
46.28212546182658	1.1521154893307541	partner-social_choice-choice_pentagon	1.1521154893307541			9
53.531867189902194	1.5	partner-social_feedback-informative			67.0	10
57.764853515478535	2.019090729236268	partner-social_feedback-partner		2.019090729236268		11
62.5147563320952	1.5	partner-social_feedback-affective				12
68.28138127299098	0.7684343985656596	partner-non_social_choice-choice_pentagon	0.7684343985656596			13
72.5315632975562	1.5	partner-non_social_feedback-informative			66.0	14
76.76427352358951	2.094419461398502	partner-non_social_feedback-partner		2.094419461398502		15
82.51416829492155	1.5	partner-non_social_feedback-affective				16
86.78111778991659	0.7512909939250676	partner-social_choice-choice_pentagon	0.7512909939250676			17
92.03096483808258	1.5	partner-social_feedback-informative			66.0	18
95.26379501199516	1.3785445421690383	partner-social_feedback-partner		1.3785445421690383		19
100.01373915212208	1.5	partner-social_feedback-affective				20
104.28071314866429	0.2854328052344499	partner-social_choice-choice_pentagon	0.2854328052344499			21
111.53050461122804	1.5	partner-social_feedback-informative			64.0	22
0.0	0.0	partner-social_feedback-partner		0.0		23
0.0	1.5	partner-social_feedback-affective				24
124.78012236878021	0.9968491739491584	partner-social_choice-choice_pentagon	0.9968491739491584			25
130.02977559872488	1.5	partner-social_feedback-informative			63.0	26
133.26283945158866	2.8607383157796	partner-social_feedback-partner		2.8607383157796		27
138.0127733522604	1.5	partner-social_feedback-affective				28
143.77969158035376	0.6956973451651721	partner-non_social_choice-choice_pentagon	0.6956973451651721			29
148.02971745325704	1.5	partner-non_social_feedback-informative			63.0	30
152.26244779250192	2.07978289433413	partner-non_social_feedback-partner		2.07978289433413		31
158.0123590200983	1.5	partner-non_social_feedback-affective				32
163.02914038692688	0.6548795931721543	partner-social_choice-choice_pentagon	0.6548795931721543			33
170.27925000393043	1.5	partner-social_feedback-informative			66.0	34
173.511933168551	1.086015430124462	partner-social_feedback-partner		1.086015430124462		35
178.26183415669402	1.5	partner-social_feedback-affective				36
183.27875668170051	0.6189054682708957	partner-social_choice-choice_pentagon	0.6189054682708957			37
187.52888531483228	1.5	partner-social_feedback-informative			67.0	38
193.76163832715062	1.9779815185193	partner-social_feedback-partner		1.9779815185193		39
199.51172545392726	1.5	partner-social_feedback-affective				40
205.27837672484384	0.6770165597554296	partner-non_social_choice-choice_pentagon	0.6770165597554296			41
209.54496454772016	1.5	partner-non_social_feedback-informative			69.0	42
212.7609471640553	1.755169552547159	partner-non_social_feedback-partner		1.755169552547159		43
220.5273055134694	1.5	partner-non_social_feedback-affective				44
226.29452873099038	0.5635838964117283	partner-non_social_choice-choice_pentagon	0.5635838964117283			45
231.52791220107608	1.5	partner-non_social_feedback-informative			65.0	46
234.77702127721747	1.3887488887448851	partner-non_social_feedback-partner		1.3887488887448851		47
240.52711388941498	1.5	partner-non_social_feedback-affective				48
245.5439987478603	0.8637275047440198	partner-social_choice-choice_pentagon	0.8637275047440198			49
249.79407545233695	1.5	partner-social_feedback-informative			48.0	50
253.02662294420043	2.351853213049253	partner-social_feedback-partner		2.351853213049253		51
260.776473466467	1.5	partner-social_feedback-affective				52
265.04354729768056	0.7978984253550152	partner-social_choice-choice_pentagon	0.7978984253550152			53
269.2937545551849	1.5	partner-social_feedback-informative			71.0	54
272.52614955233366	2.8560691250877426	partner-social_feedback-partner		2.8560691250877426		55
277.2759404663557	1.5	partner-social_feedback-affective				56
281.543169717841	0.704000444684425	partner-social_choice-choice_pentagon	0.704000444684425			57
286.7930098178058	1.5	partner-social_feedback-informative			69.0	58
291.0256867656153	1.4392092801626861	partner-social_feedback-partner		1.4392092801626861		59
295.77577608656065	1.5	partner-social_feedback-affective				60
300.79245761871965	0.6273416806834575	partner-non_social_choice-choice_pentagon	0.6273416806834575			61
306.0421923985941	1.5	partner-non_social_feedback-informative			70.0	62
309.2752163907317	1.3642901261318912	partner-non_social_feedback-partner		1.3642901261318912		63
315.02516016516165	1.5	partner-non_social_feedback-affective				64
319.2919432690396	0.6203053478093352	partner-non_social_choice-choice_pentagon	0.6203053478093352			65
323.54205873716086	1.5	partner-non_social_feedback-informative			66.0	66
327.77477444861324	1.3753403246846574	partner-non_social_feedback-partner		1.3753403246846574		67
335.5246578834085	1.5	partner-non_social_feedback-affective				68
341.29137680785783	0.7105112741865014	partner-non_social_choice-choice_pentagon	0.7105112741865014			69
345.5413862244968	1.5	partner-non_social_feedback-informative			66.0	70
349.77419335964083	1.2095083563090157	partner-non_social_feedback-partner		1.2095083563090157		71
354.52410860987953	1.5	partner-non_social_feedback-affective				72
359.54093459146867	1.04259539422128	partner-non_social_choice-choice_pentagon	1.04259539422128			73
366.7909483964468	1.5	partner-non_social_feedback-informative			64.0	74
373.02367361596407	1.3966065720469487	partner-non_social_feedback-partner		1.3966065720469487		75
378.7735511996434	1.5	partner-non_social_feedback-affective				76
383.04042353304254	0.6877599404069771	partner-non_social_choice-choice_pentagon	0.6877599404069771			77
387.2905071857185	1.5	partner-non_social_feedback-informative			62.0	78
391.5233234632306	1.2387602801372848	partner-non_social_feedback-partner		1.2387602801372848		79
397.273296493242	1.5	partner-non_social_feedback-affective				80
401.5400715518354	0.857017737293063	partner-social_choice-choice_pentagon	0.857017737293063			81
406.78995334100546	1.5	partner-social_feedback-informative			63.0	82
410.02269647956564	1.6579561831858882	partner-social_feedback-partner		1.6579561831858882		83
414.7727111987806	1.5	partner-social_feedback-affective				84
419.03962522138136	0.5819359222332423	partner-non_social_choice-choice_pentagon	0.5819359222332423			85
423.2896200102314	1.5	partner-non_social_feedback-informative			64.0	86
0.0	0.0	partner-non_social_feedback-partner		0.0		87
0.0	1.5	partner-non_social_feedback-affective				88
436.78914186433394	0.8910675763690961	partner-social_choice-choice_pentagon	0.8910675763690961			89
444.0391483554158	1.5	partner-social_feedback-informative			63.0	90
448.2717521642717	1.3422720103444592	partner-social_feedback-partner		1.3422720103444592		91
453.02177566016144	1.5	partner-social_feedback-affective				92
457.2886549417599	0.7490478222698584	partner-non_social_choice-choice_pentagon	0.7490478222698584			93
464.5384986986737	1.5	partner-non_social_feedback-informative			70.0	94
468.7712795037951	1.3644053199823247	partner-non_social_feedback-partner		1.3644053199823247		95
473.52121230738334	1.5	partner-non_social_feedback-affective				96
		partner-non_social_choice-choice_pentagon_catch	0.0			97
0.0	1.5	partner-non_social_feedback-informative_catch			73.0	98
477.0210625553791	1.2053964844308211	partner-non_social_feedback-partner_catch		1.2053964844308211		99
482.78770834087476	1.5	partner-non_social_feedback-affective_catch				100
496.05439782689433	0.6397339790037222	partner-social_choice-choice_pentagon	0.6397339790037222			101
500.3041998946064	1.5	partner-social_feedback-informative			69.0	102
503.53708492273284	1.8969581875571748	partner-social_feedback-partner		1.8969581875571748		103
508.2869888364348	1.5	partner-social_feedback-affective				104
		partner-non_social_choice-choice_pentagon_catch	0.0			105
0.0	1.5	partner-non_social_feedback-informative_catch			61.0	106
511.78686797431686	1.1980482139279047	partner-non_social_feedback-partner_catch		1.1980482139279047		107
519.5367744478826	1.5	partner-non_social_feedback-affective_catch				108
532.053378269904	0.7531223932819557	partner-non_social_choice-choice_pentagon	0.7531223932819557			109
539.3033873208497	1.5	partner-non_social_feedback-informative			59.0	110
542.5360968154928	2.15224201971796	partner-non_social_feedback-partner		2.15224201971796		111
548.2859049171675	1.5	partner-non_social_feedback-affective				112
552.5528975641429	0.6181770043076539	partner-social_choice-choice_pentagon	0.6181770043076539			113
556.8027965409657	1.5	partner-social_feedback-informative			62.0	114
563.0357371546961	2.2971390601851454	partner-social_feedback-partner		2.2971390601851454		115
568.7855375767813	1.5	partner-social_feedback-affective				116
574.5523278117072	0.5703624144771311	partner-social_choice-choice_pentagon	0.5703624144771311			117
581.8023438108539	1.5	partner-social_feedback-informative			58.0	118
0.0	0.0	partner-social_feedback-partner		0.0		119
0.0	1.5	partner-social_feedback-affective				120
593.3019837843623	0.6884682911568234	partner-non_social_choice-choice_pentagon	0.6884682911568234			121
598.551901411618	1.5	partner-non_social_feedback-informative			61.0	122
601.78463467642	1.6946510924590257	partner-non_social_feedback-partner		1.6946510924590257		123
606.5345656515346	1.5	partner-non_social_feedback-affective				124
610.8015663437944	0.6476253062246542	partner-non_social_choice-choice_pentagon	0.6476253062246542			125
615.0515322427583	1.5	partner-non_social_feedback-informative			60.0	126
621.284240274621	1.3557540790516214	partner-non_social_feedback-partner		1.3557540790516214		127
629.034058615749	1.5	partner-non_social_feedback-affective				128
633.3009294863697	0.6897420060031436	partner-social_choice-choice_pentagon	0.6897420060031436			129
638.5511257730323	1.5	partner-social_feedback-informative			61.0	130
641.7836739962859	1.2518704372723732	partner-social_feedback-partner		1.2518704372723732		131
646.5335559683026	1.5	partner-social_feedback-affective				132
651.5512347500717	0.5300730914113956	partner-non_social_choice-choice_pentagon	0.5300730914113956			133
655.8006543010632	1.5	partner-non_social_feedback-informative			58.0	134
662.0331736344306	1.3100875802392693	partner-non_social_feedback-partner		1.3100875802392693		135
669.7830852277239	1.5	partner-non_social_feedback-affective				136
674.8000648011111	0.7009618869269616	partner-non_social_choice-choice_pentagon	0.7009618869269616			137
679.0500504475913	1.5	partner-non_social_feedback-informative			59.0	138
685.2825957452878	1.409112601439119	partner-non_social_feedback-partner		1.409112601439119		139
691.0325994936592	1.5	partner-non_social_feedback-affective				140
695.2995446003151	1.8080534031378197	partner-social_choice-choice_pentagon	1.8080534031378197			141
700.549400790851	1.5	partner-social_feedback-informative			62.0	142
703.782183424446	1.284181397766588	partner-social_feedback-partner		1.284181397766588		143
708.5321754705838	1.5	partner-social_feedback-affective				144
713.54904496985	0.5422203742455167	partner-social_choice-choice_pentagon	0.5422203742455167			145
717.7991575124124	1.5	partner-social_feedback-informative			63.0	146
721.0320520486039	2.277984334368739	partner-social_feedback-partner		2.277984334368739		147
725.7817380082288	1.5	partner-social_feedback-affective				148
730.0485979080057	0.8133362296357518	partner-non_social_choice-choice_pentagon	0.8133362296357518			149
734.2986230495208	1.5	partner-non_social_feedback-informative			67.0	150
738.5314012947783	2.0535636771492136	partner-non_social_feedback-partner		2.0535636771492136		151
743.2812536455185	1.5	partner-non_social_feedback-affective				152
		partner-non_social_choice-choice_pentagon_catch	0.0			153
0.0	1.5	partner-non_social_feedback-informative_catch			66.0	154
746.7810625700076	1.4645482700634602	partner-non_social_feedback-partner_catch		1.4645482700634602		155
754.5477302971885	1.5	partner-non_social_feedback-affective_catch				156
766.0476456388515	0.7846778284019821	partner-social_choice-choice_pentagon	0.7846778284019821			157
770.298145452165	1.5	partner-social_feedback-informative			68.0	158
773.5471334833402	1.300137757214543	partner-social_feedback-partner		1.300137757214543		159
778.2969565785007	1.5	partner-social_feedback-affective				160
