index,onset,duration,trial_type,choice_RT,partner_RT,points,trialn
0,4.783131305263397,0.6858389458338934,partner-social_choice-choice_pentagon,0.6858389458338934,,,1
1,11.765760072787998,1.5,partner-social_feedback-informative,,,47.0,2
2,16.265673951671946,1.2009094097284103,partner-social_feedback-partner,,1.2009094097284103,,3
3,22.28279760879514,1.5,partner-social_feedback-affective,,,,4
0,26.282466289342665,0.4789983327973459,partner-social_choice-choice_pentagon,0.4789983327973459,,,5
1,31.265296188985303,1.5,partner-social_feedback-informative,,,38.0,6
2,35.7650528191225,1.0672282275395446,partner-social_feedback-partner,,1.0672282275395446,,7
3,41.78211833077921,1.5,partner-social_feedback-affective,,,,8
0,47.281938957499285,0.658139030565053,partner-social_choice-choice_pentagon,0.658139030565053,,,9
1,52.264848578599405,1.5,partner-social_feedback-informative,,,45.0,10
2,55.764655308918925,1.1475472303923198,partner-social_feedback-partner,,1.1475472303923198,,11
3,60.78167437734054,1.5,partner-social_feedback-affective,,,,12
0,64.78139571793372,0.5693318866447044,partner-social_choice-choice_pentagon,0.5693318866447044,,,13
1,68.76447209584421,1.5,partner-social_feedback-informative,,,45.0,14
2,72.26419727623215,1.2874781360246743,partner-social_feedback-partner,,1.2874781360246743,,15
3,78.28118782046295,1.5,partner-social_feedback-affective,,,,16
0,82.28099400224029,0.3154259923403515,partner-non_social_choice-choice_pentagon,0.3154259923403515,,,17
1,86.263922273773,1.5,partner-non_social_feedback-informative,,,46.0,18
2,0.0,0.0,partner-non_social_feedback-partner,,0.0,,19
3,0.0,1.5,partner-non_social_feedback-affective,,,,20
0,100.03055014022586,0.41752065535456495,partner-social_choice-choice_pentagon,0.41752065535456495,,,21
1,104.01355228210015,1.5,partner-social_feedback-informative,,,38.0,22
2,110.51329574722605,1.0076795899535682,partner-social_feedback-partner,,1.0076795899535682,,23
3,115.53022997446352,1.5,partner-social_feedback-affective,,,,24
0,120.28018106278931,0.8875667804340992,partner-non_social_choice-choice_pentagon,0.8875667804340992,,,25
1,127.26288918607679,1.5,partner-non_social_feedback-informative,,,42.0,26
2,130.76280525912944,1.9517312172770291,partner-non_social_feedback-partner,,1.9517312172770291,,27
3,138.77979982600257,1.5,partner-non_social_feedback-affective,,,,28
0,143.52986647387252,0.5685207756682757,partner-social_choice-choice_pentagon,0.5685207756682757,,,29
1,148.51250840640841,1.5,partner-social_feedback-informative,,,39.0,30
2,155.01226942488302,1.1838139111018793,partner-social_feedback-partner,,1.1838139111018793,,31
3,161.0293159204116,1.5,partner-social_feedback-affective,,,,32
0,166.5291489807537,0.6649698429819182,partner-social_choice-choice_pentagon,0.6649698429819182,,,33
1,171.51182601998653,1.5,partner-social_feedback-informative,,,41.0,34
2,176.0116170254314,1.0961630940118994,partner-social_feedback-partner,,1.0961630940118994,,35
3,184.028936694946,1.5,partner-social_feedback-affective,,,,36
0,188.7784705255508,1.101023177368006,partner-social_choice-choice_pentagon,1.101023177368006,,,37
1,192.76138453498788,1.5,partner-social_feedback-informative,,,50.0,38
2,197.26129768248256,1.4672021169335494,partner-social_feedback-partner,,1.4672021169335494,,39
3,202.278303951588,1.5,partner-social_feedback-affective,,,,40
0,206.27819278038083,0.3350268657654851,partner-non_social_choice-choice_pentagon,0.3350268657654851,,,41
1,210.27756305400501,1.5,partner-non_social_feedback-informative,,,48.0,42
2,213.76110989822337,1.1160301932218315,partner-non_social_feedback-partner,,1.1160301932218315,,43
3,218.794130672246,1.5,partner-non_social_feedback-affective,,,,44
0,222.7944426098757,0.3934305130587745,partner-social_choice-choice_pentagon,0.3934305130587745,,,45
1,229.77709734172825,1.5,partner-social_feedback-informative,,,33.0,46
2,234.2769099231641,1.146902510531163,partner-social_feedback-partner,,1.146902510531163,,47
3,239.29447936219918,1.5,partner-social_feedback-affective,,,,48
0,243.29392460324883,0.9085441289353184,partner-non_social_choice-choice_pentagon,0.9085441289353184,,,49
1,247.2765892088596,1.5,partner-non_social_feedback-informative,,,33.0,50
2,250.77661096769768,1.1549540120554411,partner-non_social_feedback-partner,,1.1549540120554411,,51
3,258.79359310094884,1.5,partner-non_social_feedback-affective,,,,52
0,263.54346775907015,0.4717319779224454,partner-social_choice-choice_pentagon,0.4717319779224454,,,53
1,268.52609067547843,1.5,partner-social_feedback-informative,,,46.0,54
2,272.0259880980984,0.9780740392925508,partner-social_feedback-partner,,0.9780740392925508,,55
3,277.04329167704327,1.5,partner-social_feedback-affective,,,,56
0,282.5428526604842,0.40909431670115737,partner-non_social_choice-choice_pentagon,0.40909431670115737,,,57
1,287.5259944977565,1.5,partner-non_social_feedback-informative,,,43.0,58
2,291.02551050074226,1.0344389383003545,partner-non_social_feedback-partner,,1.0344389383003545,,59
3,299.04262464980184,1.5,partner-non_social_feedback-affective,,,,60
0,304.5422112318756,0.7823055664957792,partner-non_social_choice-choice_pentagon,0.7823055664957792,,,61
1,308.52522288181353,1.5,partner-non_social_feedback-informative,,,48.0,62
2,312.0249890200148,1.5222889127562669,partner-non_social_feedback-partner,,1.5222889127562669,,63
3,318.0427709277056,1.5,partner-non_social_feedback-affective,,,,64
0,322.041907156683,0.3851976269334045,partner-non_social_choice-choice_pentagon,0.3851976269334045,,,65
1,326.0247966645711,1.5,partner-non_social_feedback-informative,,,48.0,66
2,330.52463740450366,1.3606137967126417,partner-non_social_feedback-partner,,1.3606137967126417,,67
3,335.54174899369946,1.5,partner-non_social_feedback-affective,,,,68
0,339.54153359948623,0.5631809007863922,partner-non_social_choice-choice_pentagon,0.5631809007863922,,,69
1,343.5242468424999,1.5,partner-non_social_feedback-informative,,,48.0,70
2,347.02407770867376,1.1846966982516278,partner-non_social_feedback-partner,,1.1846966982516278,,71
3,355.04135495759596,1.5,partner-non_social_feedback-affective,,,,72
0,359.79088695972723,0.4427375032046257,partner-non_social_choice-choice_pentagon,0.4427375032046257,,,73
1,364.77372490465444,1.5,partner-non_social_feedback-informative,,,49.0,74
2,369.27362854408517,1.0735627921671949,partner-non_social_feedback-partner,,1.0735627921671949,,75
3,374.290729893828,1.5,partner-non_social_feedback-affective,,,,76
0,378.2904047911866,0.4687080479538963,partner-non_social_choice-choice_pentagon,0.4687080479538963,,,77
1,385.27329027643236,1.5,partner-non_social_feedback-informative,,,51.0,78
2,391.7731057834262,1.4068705268673511,partner-non_social_feedback-partner,,1.4068705268673511,,79
3,397.7902981911639,1.5,partner-non_social_feedback-affective,,,,80
0,401.7897953608695,0.3119091058360937,partner-social_choice-choice_pentagon,0.3119091058360937,,,81
1,405.77272619226545,1.5,partner-social_feedback-informative,,,49.0,82
2,409.2726199579379,1.2089013030072238,partner-social_feedback-partner,,1.2089013030072238,,83
3,414.2896485344236,1.5,partner-social_feedback-affective,,,,84
0,419.0393677722718,0.4359721501496097,partner-non_social_choice-choice_pentagon,0.4359721501496097,,,85
1,424.0223289563328,1.5,partner-non_social_feedback-informative,,,50.0,86
2,427.5221773758549,1.0711455498058058,partner-non_social_feedback-partner,,1.0711455498058058,,87
3,432.53916718869635,1.5,partner-non_social_feedback-affective,,,,88
0,436.5390746679212,0.41004366029756056,partner-non_social_choice-choice_pentagon,0.41004366029756056,,,89
1,443.5218029044208,1.5,partner-non_social_feedback-informative,,,37.0,90
2,447.0217731002977,1.8770984022430641,partner-non_social_feedback-partner,,1.8770984022430641,,91
3,453.0388609193351,1.5,partner-non_social_feedback-affective,,,,92
0,457.03847072302597,0.4222454316495714,partner-non_social_choice-choice_pentagon,0.4222454316495714,,,93
1,464.0216326735099,1.5,partner-non_social_feedback-informative,,,50.0,94
2,467.5211153982728,1.2114143573953695,partner-non_social_feedback-partner,,1.2114143573953695,,95
3,472.53818785812933,1.5,partner-non_social_feedback-affective,,,,96
0,476.538061327743,0.451495527005136,partner-social_choice-choice_pentagon,0.451495527005136,,,97
1,480.5376374875159,1.5,partner-social_feedback-informative,,,53.0,98
2,484.02082851073374,1.400499392763777,partner-social_feedback-partner,,1.400499392763777,,99
3,492.0377181232106,1.5,partner-social_feedback-affective,,,,100
0,496.80412584141783,0.5440269063574306,partner-social_choice-choice_pentagon,0.5440269063574306,,,101
1,501.78699413901,1.5,partner-social_feedback-informative,,,52.0,102
2,505.28699468755264,1.1438752893100173,partner-social_feedback-partner,,1.1438752893100173,,103
3,510.28775898959975,1.5,partner-social_feedback-affective,,,,104
0,514.3037625236739,0.5890285720979591,partner-non_social_choice-choice_pentagon,0.5890285720979591,,,105
1,518.2866147306968,1.5,partner-non_social_feedback-informative,,,53.0,106
2,0.0,0.0,partner-non_social_feedback-partner,,0.0,,107
3,0.0,1.5,partner-non_social_feedback-affective,,,,108
0,533.55327605822,0.4170712164950601,partner-social_choice-choice_pentagon,0.4170712164950601,,,109
1,537.5360357444688,1.5,partner-social_feedback-informative,,,62.0,110
2,0.0,0.0,partner-social_feedback-partner,,0.0,,111
3,0.0,1.5,partner-social_feedback-affective,,,,112
0,,,partner-social_choice-choice_pentagon_catch,0.0,,,113
1,0.0,1.5,partner-social_feedback-informative_catch,,,59.0,114
2,549.5359779646969,1.3992520079382302,partner-social_feedback-partner_catch,,1.3992520079382302,,115
3,554.5526905809102,1.5,partner-social_feedback-affective_catch,,,,116
0,,,partner-non_social_choice-choice_pentagon_catch,0.0,,,117
1,0.0,1.5,partner-non_social_feedback-informative_catch,,,60.0,118
2,565.2855915167593,1.370290445748651,partner-non_social_feedback-partner_catch,,1.370290445748651,,119
3,570.302348747733,1.5,partner-non_social_feedback-affective_catch,,,,120
0,583.3021845507865,0.5783480909449281,partner-social_choice-choice_pentagon,0.5783480909449281,,,121
1,587.2849500881513,1.5,partner-social_feedback-informative,,,61.0,122
2,591.7849904974219,1.0914668419072768,partner-social_feedback-partner,,1.0914668419072768,,123
3,597.8018435404229,1.5,partner-social_feedback-affective,,,,124
0,601.8016764179174,0.31346111439688684,partner-non_social_choice-choice_pentagon,0.31346111439688684,,,125
1,605.7845619031632,1.5,partner-non_social_feedback-informative,,,60.0,126
2,612.2842900091091,1.1836551995756963,partner-non_social_feedback-partner,,1.1836551995756963,,127
3,618.3017171928832,1.5,partner-non_social_feedback-affective,,,,128
0,,,partner-social_choice-choice_pentagon_catch,0.0,,,129
1,0.0,1.5,partner-social_feedback-informative_catch,,,56.0,130
2,622.2840790032333,1.232891976328574,partner-social_feedback-partner_catch,,1.232891976328574,,131
3,627.3013566178497,1.5,partner-social_feedback-affective_catch,,,,132
0,641.5506573180455,0.7527735204812416,partner-non_social_choice-choice_pentagon,0.7527735204812416,,,133
1,645.5335735216512,1.5,partner-non_social_feedback-informative,,,57.0,134
2,652.0333451452743,1.2579599864111517,partner-non_social_feedback-partner,,1.2579599864111517,,135
3,657.0505825334676,1.5,partner-non_social_feedback-affective,,,,136
0,661.0503587282748,0.3596937086967955,partner-non_social_choice-choice_pentagon,0.3596937086967955,,,137
1,665.0331824111063,1.5,partner-non_social_feedback-informative,,,57.0,138
2,671.5327869122239,1.2325504174223172,partner-non_social_feedback-partner,,1.2325504174223172,,139
3,679.5497361329462,1.5,partner-non_social_feedback-affective,,,,140
0,684.2996338298371,0.4582883071652759,partner-social_choice-choice_pentagon,0.4582883071652759,,,141
1,691.2826802207775,1.5,partner-social_feedback-informative,,,62.0,142
2,695.7824379479988,1.0559856735426365,partner-social_feedback-partner,,1.0559856735426365,,143
3,700.7991779913191,1.5,partner-social_feedback-affective,,,,144
0,705.5491393190988,0.34933065059612994,partner-non_social_choice-choice_pentagon,0.34933065059612994,,,145
1,709.5319502026132,1.5,partner-non_social_feedback-informative,,,65.0,146
2,713.031841042727,1.3793706466321964,partner-non_social_feedback-partner,,1.3793706466321964,,147
3,721.0488644994867,1.5,partner-non_social_feedback-affective,,,,148
0,726.5486189354551,0.4294942331762286,partner-non_social_choice-choice_pentagon,0.4294942331762286,,,149
1,730.5314671198358,1.5,partner-non_social_feedback-informative,,,71.0,150
2,735.0317521789011,1.2630321727283444,partner-non_social_feedback-partner,,1.2630321727283444,,151
3,741.0484121350682,1.5,partner-non_social_feedback-affective,,,,152
0,746.5481175679398,0.4983611389343423,partner-social_choice-choice_pentagon,0.4983611389343423,,,153
1,751.5474936926795,1.5,partner-social_feedback-informative,,,67.0,154
2,756.0308112462843,1.1596605036129404,partner-social_feedback-partner,,1.1596605036129404,,155
3,761.064362643403,1.5,partner-social_feedback-affective,,,,156
0,765.814325068266,0.3277861095230037,partner-social_choice-choice_pentagon,0.3277861095230037,,,157
1,769.7970986509154,1.5,partner-social_feedback-informative,,,68.0,158
2,773.2975811851511,1.114425524617218,partner-social_feedback-partner,,1.114425524617218,,159
3,779.2977113724855,1.5,partner-social_feedback-affective,,,,160
