onset	duration	trial_type	choice_RT	partner_RT	points	trialn
4.7839866067461125	0.5012742680501105	partner-non_social_choice-choice_pentagon	0.5012742680501105			1
8.766288378434183	1.5	partner-non_social_feedback-informative			39.0	2
15.26622456446512	1.4790640812925633	partner-non_social_feedback-partner		1.4790640812925633		3
21.282743788560765	1.5	partner-non_social_feedback-affective				4
25.283318662824968	0.7226531544401951	partner-non_social_choice-choice_pentagon	0.7226531544401951			5
29.265835098121897	1.5	partner-non_social_feedback-informative			46.0	6
32.76593840726946	1.4661319702136095	partner-non_social_feedback-partner		1.4661319702136095		7
37.78242069605858	1.5	partner-non_social_feedback-affective				8
41.78288439870994	3.0	partner-social_choice-choice_star_lapse	0.0			9
0.0	1.5	partner-social_feedback-informative_lapse			0.0	10
0.0	3.0	partner-social_feedback-partner_lapse		0.0		11
0.0	1.5	partner-social_feedback-affective_lapse				12
63.032862182672034	0.4467540997275137	partner-social_choice-choice_pentagon	0.4467540997275137			13
67.01507947856135	1.5	partner-social_feedback-informative			41.0	14
71.51512500772515	1.0534409991405482	partner-social_feedback-partner		1.0534409991405482		15
79.53156158450292	1.5	partner-social_feedback-affective				16
85.03252976491967	3.0	partner-social_choice-choice_star_lapse	1.721756833305335			17
90.014457063804	1.5	partner-social_feedback-informative_lapse			0.0	18
94.5145022272718	3.0	partner-social_feedback-partner_lapse		0.0		19
0.0	1.5	partner-social_feedback-affective_lapse				20
104.28197436397205	0.3869763186175987	partner-social_choice-choice_pentagon	0.3869763186175987			21
109.26424212592336	1.5	partner-social_feedback-informative			41.0	22
115.76418452878806	1.231706144169948	partner-social_feedback-partner		1.231706144169948		23
123.78051797926581	1.5	partner-social_feedback-affective				24
129.28165803684806	0.8418302211985065	partner-social_choice-choice_pentagon	0.8418302211985065			25
136.263884840836	1.5	partner-social_feedback-informative			41.0	26
140.76358880984571	0.9848660327206744	partner-social_feedback-partner		0.9848660327206744		27
148.78052456179554	1.5	partner-social_feedback-affective				28
154.2813409783321	3.0	partner-non_social_choice-choice_star_lapse	0.6788954222529355			29
159.28012613589814	1.5	partner-non_social_feedback-informative_lapse			0.0	30
163.76351018518469	3.0	partner-non_social_feedback-partner_lapse		0.0		31
0.0	1.5	partner-non_social_feedback-affective_lapse				32
173.53083823762245	0.34524308002437465	partner-non_social_choice-choice_pentagon	0.34524308002437465			33
177.52985853777864	1.5	partner-non_social_feedback-informative			52.0	34
182.01310362254932	1.3857051589839102	partner-non_social_feedback-partner		1.3857051589839102		35
190.0463380838473	1.5	partner-non_social_feedback-affective				36
		partner-non_social_choice-choice_pentagon_catch	0.0			37
0.0	1.5	partner-non_social_feedback-informative_catch			36.0	38
194.02927580104824	1.6613515176932196	partner-non_social_feedback-partner_catch		1.6613515176932196		39
199.04573578237614	1.5	partner-non_social_feedback-affective_catch				40
213.546780758973	3.0	partner-non_social_choice-choice_star_lapse	2.140513605540036			41
218.52869013874897	1.5	partner-non_social_feedback-informative_lapse			0.0	42
225.02913244817864	3.0	partner-non_social_feedback-partner_lapse		0.0		43
0.0	1.5	partner-non_social_feedback-affective_lapse				44
234.04641049167458	3.0	partner-social_choice-choice_star_lapse	0.4607032116527989			45
238.02862522769192	1.5	partner-social_feedback-informative_lapse			0.0	46
242.52845536185487	3.0	partner-social_feedback-partner_lapse		0.0		47
0.0	1.5	partner-social_feedback-affective_lapse				48
252.29620542758857	0.000713838781848608	partner-non_social_choice-choice_pentagon	0.000713838781848608			49
256.2781440630515	1.5	partner-non_social_feedback-informative			33.0	50
259.77841961506147	1.1443102624198218	partner-non_social_feedback-partner		1.1443102624198218		51
264.79464481949435	1.5	partner-non_social_feedback-affective				52
268.7955660079624	3.0	partner-non_social_choice-choice_star_lapse	0.0			53
0.0	1.5	partner-non_social_feedback-informative_lapse			0.0	54
0.0	3.0	partner-non_social_feedback-partner_lapse		0.0		55
0.0	1.5	partner-non_social_feedback-affective_lapse				56
289.295403456048	3.0	partner-non_social_choice-choice_star_lapse	0.0			57
0.0	1.5	partner-non_social_feedback-informative_lapse			0.0	58
0.0	3.0	partner-non_social_feedback-partner_lapse		0.0		59
0.0	1.5	partner-non_social_feedback-affective_lapse				60
307.7951209558123	1.0489787753640485	partner-social_choice-choice_pentagon	1.0489787753640485			61
314.777483798749	1.5	partner-social_feedback-informative			48.0	62
0.0	0.0	partner-social_feedback-partner		0.0		63
0.0	1.5	partner-social_feedback-affective				64
326.54457341733183	0.7331764253285655	partner-non_social_choice-choice_pentagon	0.7331764253285655			65
333.5269380887476	1.5	partner-non_social_feedback-informative			31.0	66
337.0269349803312	2.733830655645761	partner-non_social_feedback-partner		2.733830655645761		67
342.04365131462237	1.5	partner-non_social_feedback-affective				68
346.794338366165	3.0	partner-social_choice-choice_star_lapse	0.5231326551620441			69
350.77662587570467	1.5	partner-social_feedback-informative_lapse			0.0	70
354.2763430097739	3.0	partner-social_feedback-partner_lapse		0.0		71
0.0	1.5	partner-social_feedback-affective_lapse				72
363.29411218312913	3.0	partner-social_choice-choice_star_lapse	0.0			73
0.0	1.5	partner-social_feedback-informative_lapse			0.0	74
0.0	3.0	partner-social_feedback-partner_lapse		0.0		75
0.0	1.5	partner-social_feedback-affective_lapse				76
383.543858847158	0.3192654920749192	partner-social_choice-choice_pentagon	0.3192654920749192			77
387.525949612198	1.5	partner-social_feedback-informative			31.0	78
391.02587555873833	1.3900777872167964	partner-social_feedback-partner		1.3900777872167964		79
396.0433989843159	1.5	partner-social_feedback-affective				80
401.54326605378446	3.0	partner-social_choice-choice_star_lapse	0.0			81
0.0	1.5	partner-social_feedback-informative_lapse			0.0	82
0.0	3.0	partner-social_feedback-partner_lapse		0.0		83
0.0	1.5	partner-social_feedback-affective_lapse				84
419.79307781171883	0.29837473683619464	partner-social_choice-choice_pentagon	0.29837473683619464			85
423.7750800783033	1.5	partner-social_feedback-informative			50.0	86
428.27540426789255	1.4458870342814407	partner-social_feedback-partner		1.4458870342814407		87
434.2919633528627	1.5	partner-social_feedback-affective				88
439.79283937786295	3.0	partner-social_choice-choice_star_lapse	0.0			89
0.0	1.5	partner-social_feedback-informative_lapse			0.0	90
0.0	3.0	partner-social_feedback-partner_lapse		0.0		91
0.0	1.5	partner-social_feedback-affective_lapse				92
457.0415697724384	0.5324553457639922	partner-social_choice-choice_pentagon	0.5324553457639922			93
464.04128599226715	1.5	partner-social_feedback-informative			40.0	94
0.0	0.0	partner-social_feedback-partner		0.0		95
0.0	1.5	partner-social_feedback-affective				96
477.2920299095521	0.658698758205901	partner-non_social_choice-choice_pentagon	0.658698758205901			97
482.2909492775862	1.5	partner-non_social_feedback-informative			53.0	98
485.77407075707464	1.3894586637243265	partner-non_social_feedback-partner		1.3894586637243265		99
490.79032850846124	1.5	partner-non_social_feedback-affective				100
495.5582936034998	3.0	partner-social_choice-choice_star_lapse	0.4412266032204569			101
500.5400749896417	1.5	partner-social_feedback-informative_lapse			0.0	102
504.04048072946165	3.0	partner-social_feedback-partner_lapse		0.0		103
0.0	1.5	partner-social_feedback-affective_lapse				104
513.0578977374753	3.0	partner-non_social_choice-choice_star_lapse	0.3712729625149223			105
517.0401761046123	1.5	partner-non_social_feedback-informative_lapse			0.0	106
520.5404454397876	3.0	partner-non_social_feedback-partner_lapse		0.0		107
0.0	1.5	partner-non_social_feedback-affective_lapse				108
530.556550330205	0.6023917987531604	partner-non_social_choice-choice_pentagon	0.6023917987531604			109
534.5399250542423	1.5	partner-non_social_feedback-informative			62.0	110
0.0	0.0	partner-non_social_feedback-partner		0.0		111
0.0	1.5	partner-non_social_feedback-affective				112
549.0575784847824	3.0	partner-social_choice-choice_star_lapse	0.482128614586145			113
554.0395734374441	1.5	partner-social_feedback-informative_lapse			0.0	114
557.5395012124653	3.0	partner-social_feedback-partner_lapse		0.0		115
0.0	1.5	partner-social_feedback-affective_lapse				116
567.3069184947508	0.8783705752148308	partner-social_choice-choice_pentagon	0.8783705752148308			117
574.2892052728994	1.5	partner-social_feedback-informative			60.0	118
577.7891293909588	1.350046498258962	partner-social_feedback-partner		1.350046498258962		119
585.8055981489924	1.5	partner-social_feedback-affective				120
591.3065981449698	3.0	partner-non_social_choice-choice_star_lapse	0.5415783662965623			121
595.2887759456808	1.5	partner-non_social_feedback-informative_lapse			0.0	122
601.7886956753873	3.0	partner-non_social_feedback-partner_lapse		0.0		123
0.0	1.5	partner-non_social_feedback-affective_lapse				124
613.3061991705281	3.0	partner-non_social_choice-choice_star_lapse	0.0			125
0.0	1.5	partner-non_social_feedback-informative_lapse			0.0	126
0.0	3.0	partner-non_social_feedback-partner_lapse		0.0		127
0.0	1.5	partner-non_social_feedback-affective_lapse				128
629.8059053337138	3.0	partner-non_social_choice-choice_star_lapse	0.0			129
0.0	1.5	partner-non_social_feedback-informative_lapse			0.0	130
0.0	3.0	partner-non_social_feedback-partner_lapse		0.0		131
0.0	1.5	partner-non_social_feedback-affective_lapse				132
0.0	3.0	partner-social_choice-choice_star_lapse	0.0			133
0.0	1.5	partner-social_feedback-informative_lapse			0.0	134
647.5377242951298	3.0	partner-social_feedback-partner_lapse		0.0		135
0.0	1.5	partner-social_feedback-affective_lapse				136
659.5552213905885	3.0	partner-non_social_choice-choice_star_lapse	0.0			137
0.0	1.5	partner-non_social_feedback-informative_lapse			0.0	138
0.0	3.0	partner-non_social_feedback-partner_lapse		0.0		139
0.0	1.5	partner-non_social_feedback-affective_lapse				140
679.0550698095567	3.0	partner-non_social_choice-choice_star_lapse	0.0			141
0.0	1.5	partner-non_social_feedback-informative_lapse			0.0	142
0.0	3.0	partner-non_social_feedback-partner_lapse		0.0		143
0.0	1.5	partner-non_social_feedback-affective_lapse				144
697.5548096167831	3.0	partner-social_choice-choice_star_lapse	0.0			145
0.0	1.5	partner-social_feedback-informative_lapse			0.0	146
0.0	3.0	partner-social_feedback-partner_lapse		0.0		147
0.0	1.5	partner-social_feedback-affective_lapse				148
717.054271494977	0.2940489177035488	partner-non_social_choice-choice_pentagon	0.2940489177035488			149
721.0366749301793	1.5	partner-non_social_feedback-informative			62.0	150
727.536404497916	1.4746029546049613	partner-non_social_feedback-partner		1.4746029546049613		151
733.5529189679619	1.5	partner-non_social_feedback-affective				152
737.5538050496052	1.2691351397015749	partner-social_choice-choice_pentagon	1.2691351397015749			153
741.536088902184	1.5	partner-social_feedback-informative			63.0	154
745.0358722272467	1.6799994587699985	partner-social_feedback-partner		1.6799994587699985		155
751.0694175302278	1.5	partner-social_feedback-affective				156
0.0	3.0	partner-non_social_choice-choice_star_lapse	0.0			157
0.0	1.5	partner-non_social_feedback-informative_lapse			0.0	158
754.2860131116678	3.0	partner-non_social_feedback-partner_lapse		0.0		159
0.0	1.5	partner-non_social_feedback-affective_lapse				160
