index,onset,duration,trial_type,choice_RT,partner_RT,points,trialn
0,4.815753780081651,0.54114690965298,partner-social_choice-choice_pentagon,0.54114690965298,,,1
1,9.796276217018658,1.5,partner-social_feedback-informative,,,49.0,2
2,13.282095540332193,1.2476216214040503,partner-social_feedback-partner,,1.2476216214040503,,3
3,18.29885344141303,1.5,partner-social_feedback-affective,,,,4
0,22.29863841368069,0.4488736825437627,partner-non_social_choice-choice_pentagon,0.4488736825437627,,,5
1,26.28145484545621,1.5,partner-non_social_feedback-informative,,,55.0,6
2,32.781195020279476,1.2840706505062371,partner-non_social_feedback-partner,,1.2840706505062371,,7
3,37.78162178450384,1.5,partner-non_social_feedback-affective,,,,8
0,42.548022677380686,0.6020655827269366,partner-social_choice-choice_pentagon,0.6020655827269366,,,9
1,47.53089688871705,1.5,partner-social_feedback-informative,,,60.0,10
2,54.03076542193185,1.3641556815409783,partner-social_feedback-partner,,1.3641556815409783,,11
3,59.03103932630528,1.5,partner-social_feedback-affective,,,,12
0,63.047406301117455,0.4791827190842923,partner-social_choice-choice_pentagon,0.4791827190842923,,,13
1,68.0302088365429,1.5,partner-social_feedback-informative,,,55.0,14
2,74.53011284201965,1.2173809695336786,partner-social_feedback-partner,,1.2173809695336786,,15
3,82.53009711720233,1.5,partner-social_feedback-affective,,,,16
0,87.29670279839594,0.6994552265086895,partner-social_choice-choice_pentagon,0.6994552265086895,,,17
1,91.27961979586279,1.5,partner-social_feedback-informative,,,55.0,18
2,97.7793782553572,1.582627148860411,partner-social_feedback-partner,,1.582627148860411,,19
3,103.77979734001929,1.5,partner-social_feedback-affective,,,,20
0,108.54632439712714,0.6544511654833514,partner-social_choice-choice_pentagon,0.6544511654833514,,,21
1,112.52922091576237,1.5,partner-social_feedback-informative,,,58.0,22
2,116.02885723365398,1.8668254263711788,partner-social_feedback-partner,,1.8668254263711788,,23
3,121.04582394567842,1.5,partner-social_feedback-affective,,,,24
0,126.54572868254219,0.6555661647280431,partner-social_choice-choice_pentagon,0.6555661647280431,,,25
1,130.52847709534126,1.5,partner-social_feedback-informative,,,38.0,26
2,134.02835184534388,1.4177392759488612,partner-social_feedback-partner,,1.4177392759488612,,27
3,139.0453459843757,1.5,partner-social_feedback-affective,,,,28
0,143.79513525354102,0.5028672192784143,partner-non_social_choice-choice_pentagon,0.5028672192784143,,,29
1,150.7782094991794,1.5,partner-non_social_feedback-informative,,,53.0,30
2,155.27778145502862,1.195979493375944,partner-non_social_feedback-partner,,1.195979493375944,,31
3,160.29485677799994,1.5,partner-non_social_feedback-affective,,,,32
0,165.7948024725265,0.5156365022012324,partner-social_choice-choice_pentagon,0.5156365022012324,,,33
1,170.77735048533032,1.5,partner-social_feedback-informative,,,54.0,34
2,177.27734225722816,1.3099218842280609,partner-social_feedback-partner,,1.3099218842280609,,35
3,185.29401568312824,1.5,partner-social_feedback-affective,,,,36
0,,,partner-non_social_choice-choice_pentagon_catch,0.0,,,37
1,0.0,1.5,partner-non_social_feedback-informative_catch,,,51.0,38
2,188.54358169645909,1.6423192861957432,partner-non_social_feedback-partner_catch,,1.6423192861957432,,39
3,193.54394007601329,1.5,partner-non_social_feedback-affective_catch,,,,40
0,207.04336173186584,0.6340970352866862,partner-non_social_choice-choice_pentagon,0.6340970352866862,,,41
1,211.04278393625827,1.5,partner-non_social_feedback-informative,,,48.0,42
2,215.52610118517575,1.1162923367846815,partner-non_social_feedback-partner,,1.1162923367846815,,43
3,221.54299548990318,1.5,partner-non_social_feedback-affective,,,,44
0,225.5596466085044,0.6764439679054703,partner-non_social_choice-choice_pentagon,0.6764439679054703,,,45
1,230.5423741767786,1.5,partner-non_social_feedback-informative,,,41.0,46
2,237.04219772970242,1.5326606280932538,partner-non_social_feedback-partner,,1.5326606280932538,,47
3,245.0422712340801,1.5,partner-non_social_feedback-affective,,,,48
0,250.55883440341358,0.9416971319760704,partner-non_social_choice-choice_pentagon,0.9416971319760704,,,49
1,254.5416501038021,1.5,partner-non_social_feedback-informative,,,51.0,50
2,259.0414436698652,1.4060136820539808,partner-non_social_feedback-partner,,1.4060136820539808,,51
3,265.04190627204486,1.5,partner-non_social_feedback-affective,,,,52
0,269.0584985140049,0.5957017857908795,partner-non_social_choice-choice_pentagon,0.5957017857908795,,,53
1,274.0412169399433,1.5,partner-non_social_feedback-informative,,,47.0,54
2,277.5410492695092,1.704025297208318,partner-non_social_feedback-partner,,1.704025297208318,,55
3,282.5414881016163,1.5,partner-non_social_feedback-affective,,,,56
0,286.5575372888443,0.5363395039221359,partner-non_social_choice-choice_pentagon,0.5363395039221359,,,57
1,293.54087556513383,1.5,partner-non_social_feedback-informative,,,43.0,58
2,298.0404614173326,1.4931898742420344,partner-non_social_feedback-partner,,1.4931898742420344,,59
3,306.04095144651865,1.5,partner-non_social_feedback-affective,,,,60
0,310.0571161928683,1.1331859101251212,partner-non_social_choice-choice_pentagon,1.1331859101251212,,,61
1,314.04007378230517,1.5,partner-non_social_feedback-informative,,,38.0,62
2,318.53964427538034,1.9376441517761125,partner-non_social_feedback-partner,,1.9376441517761125,,63
3,323.54035481770006,1.5,partner-non_social_feedback-affective,,,,64
0,327.55659745674893,1.0173473988775186,partner-social_choice-choice_pentagon,1.0173473988775186,,,65
1,334.5394680111508,1.5,partner-social_feedback-informative,,,44.0,66
2,338.03917637064666,1.1184780863700323,partner-social_feedback-partner,,1.1184780863700323,,67
3,343.03950549472665,1.5,partner-social_feedback-affective,,,,68
0,348.5560331917982,0.5267788150877095,partner-non_social_choice-choice_pentagon,0.5267788150877095,,,69
1,352.53889496955804,1.5,partner-non_social_feedback-informative,,,45.0,70
2,359.03867098233695,2.1196117359795608,partner-non_social_feedback-partner,,2.1196117359795608,,71
3,364.03891855678376,1.5,partner-non_social_feedback-affective,,,,72
0,368.80553264892615,0.7085167438222015,partner-non_social_choice-choice_pentagon,0.7085167438222015,,,73
1,372.78832421354895,1.5,partner-non_social_feedback-informative,,,49.0,74
2,376.28859610660857,1.324237684633772,partner-non_social_feedback-partner,,1.324237684633772,,75
3,384.30517152667153,1.5,partner-non_social_feedback-affective,,,,76
0,389.054934831604,0.7207126194580269,partner-non_social_choice-choice_pentagon,0.7207126194580269,,,77
1,393.03772420206633,1.5,partner-non_social_feedback-informative,,,35.0,78
2,397.5377463265181,1.346716493614622,partner-non_social_feedback-partner,,1.346716493614622,,79
3,402.55472547211957,1.5,partner-non_social_feedback-affective,,,,80
0,406.5546110100781,0.5558671669841715,partner-social_choice-choice_pentagon,0.5558671669841715,,,81
1,411.53733163017756,1.5,partner-social_feedback-informative,,,35.0,82
2,416.037188826896,1.630978767474062,partner-social_feedback-partner,,1.630978767474062,,83
3,422.0542473279697,1.5,partner-social_feedback-affective,,,,84
0,427.5704736936609,0.433260036181764,partner-social_choice-choice_pentagon,0.433260036181764,,,85
1,434.55680443922574,1.5,partner-social_feedback-informative,,,51.0,86
2,0.0,0.0,partner-social_feedback-partner,,0.0,,87
3,0.0,1.5,partner-social_feedback-affective,,,,88
0,446.30324505372255,0.6141305401179125,partner-non_social_choice-choice_pentagon,0.6141305401179125,,,89
1,450.2865061686998,1.5,partner-non_social_feedback-informative,,,47.0,90
2,454.7860108369592,0.7511924348273169,partner-non_social_feedback-partner,,0.7511924348273169,,91
3,460.8029270832917,1.5,partner-non_social_feedback-affective,,,,92
0,,,partner-non_social_choice-choice_pentagon_catch,0.0,,,93
1,0.0,1.5,partner-non_social_feedback-informative_catch,,,47.0,94
2,464.0357348298485,1.6952033090869918,partner-non_social_feedback-partner_catch,,1.6952033090869918,,95
3,470.05265765866267,1.5,partner-non_social_feedback-affective_catch,,,,96
0,483.069105451721,0.7044721745705829,partner-non_social_choice-choice_pentagon,0.7044721745705829,,,97
1,487.0518202207254,1.5,partner-non_social_feedback-informative,,,47.0,98
2,0.0,0.0,partner-non_social_feedback-partner,,0.0,,99
3,0.0,1.5,partner-non_social_feedback-affective,,,,100
0,502.31829736068084,1.4027670558498355,partner-social_choice-choice_pentagon,1.4027670558498355,,,101
1,507.3012139924545,1.5,partner-social_feedback-informative,,,49.0,102
2,510.80116078406166,1.7439410999550091,partner-social_feedback-partner,,1.7439410999550091,,103
3,515.8015345227391,1.5,partner-social_feedback-affective,,,,104
0,519.8179812187174,0.4147731366001608,partner-social_choice-choice_pentagon,0.4147731366001608,,,105
1,523.8008254431934,1.5,partner-social_feedback-informative,,,55.0,106
2,527.3005897537823,1.5321000200765411,partner-social_feedback-partner,,1.5321000200765411,,107
3,532.300980680051,1.5,partner-social_feedback-affective,,,,108
0,536.3174899096043,0.8220111602317957,partner-social_choice-choice_pentagon,0.8220111602317957,,,109
1,540.3005063756823,1.5,partner-social_feedback-informative,,,57.0,110
2,544.8002875081688,1.7769515138061251,partner-social_feedback-partner,,1.7769515138061251,,111
3,549.8005665322503,1.5,partner-social_feedback-affective,,,,112
0,553.8170519917312,0.5569576647694703,partner-social_choice-choice_pentagon,0.5569576647694703,,,113
1,557.7998698862807,1.5,partner-social_feedback-informative,,,59.0,114
2,562.2997976618294,1.5961179449054723,partner-social_feedback-partner,,1.5961179449054723,,115
3,568.3000119581753,1.5,partner-social_feedback-affective,,,,116
0,573.8162920807995,0.6224427516090145,partner-non_social_choice-choice_pentagon,0.6224427516090145,,,117
1,580.7993772972404,1.5,partner-non_social_feedback-informative,,,55.0,118
2,584.2990472589267,1.6973444440745882,partner-non_social_feedback-partner,,1.6973444440745882,,119
3,592.2995877538052,1.5,partner-non_social_feedback-affective,,,,120
0,597.065717667856,0.8975060074285466,partner-social_choice-choice_pentagon,0.8975060074285466,,,121
1,601.048618940506,1.5,partner-social_feedback-informative,,,53.0,122
2,604.5484059240875,1.2545789387650077,partner-social_feedback-partner,,1.2545789387650077,,123
3,609.5488107467057,1.5,partner-social_feedback-affective,,,,124
0,613.5651824755328,1.095576535793498,partner-social_choice-choice_pentagon,1.095576535793498,,,125
1,618.548193456209,1.5,partner-social_feedback-informative,,,24.0,126
2,623.0481380536553,1.1275977489376598,partner-social_feedback-partner,,1.1275977489376598,,127
3,628.0487370594815,1.5,partner-social_feedback-affective,,,,128
0,,,partner-social_choice-choice_pentagon_catch,0.0,,,129
1,0.0,1.5,partner-social_feedback-informative_catch,,,26.0,130
2,632.0477643149778,1.8806914238675745,partner-social_feedback-partner_catch,,1.8806914238675745,,131
3,640.0645679277363,1.5,partner-social_feedback-affective_catch,,,,132
0,651.3142564483637,1.8736693787709555,partner-non_social_choice-choice_pentagon,1.8736693787709555,,,133
1,658.2973358137101,1.5,partner-non_social_feedback-informative,,,30.0,134
2,661.7967380878113,1.5399909527445743,partner-non_social_feedback-partner,,1.5399909527445743,,135
3,667.8141436319429,1.5,partner-non_social_feedback-affective,,,,136
0,671.8137062626098,1.1238519512121457,partner-non_social_choice-choice_pentagon,1.1238519512121457,,,137
1,675.7965651148224,1.5,partner-non_social_feedback-informative,,,33.0,138
2,679.2962877363616,1.4821009525949194,partner-non_social_feedback-partner,,1.4821009525949194,,139
3,685.3134680133447,1.5,partner-non_social_feedback-affective,,,,140
0,689.3132976002103,0.7058669292837294,partner-non_social_choice-choice_pentagon,0.7058669292837294,,,141
1,696.2961154947596,1.5,partner-non_social_feedback-informative,,,36.0,142
2,0.0,0.0,partner-non_social_feedback-partner,,0.0,,143
3,0.0,1.5,partner-non_social_feedback-affective,,,,144
0,707.0626758299686,1.0529728863925811,partner-non_social_choice-choice_pentagon,1.0529728863925811,,,145
1,711.045645852982,1.5,partner-non_social_feedback-informative,,,37.0,146
2,714.5458749599112,1.5746458899170648,partner-non_social_feedback-partner,,1.5746458899170648,,147
3,719.5622572938469,1.5,partner-non_social_feedback-affective,,,,148
0,724.3122604936642,1.3170613169131684,partner-social_choice-choice_pentagon,1.3170613169131684,,,149
1,729.3118344608273,1.5,partner-social_feedback-informative,,,64.0,150
2,732.7952515440493,2.2350337224188483,partner-social_feedback-partner,,2.2350337224188483,,151
3,737.8120931889233,1.5,partner-social_feedback-affective,,,,152
0,741.8284897849029,1.5095674541630617,partner-social_choice-choice_pentagon,1.5095674541630617,,,153
1,748.8111105706977,1.5,partner-social_feedback-informative,,,64.0,154
2,753.3110317637653,2.208755358779854,partner-social_feedback-partner,,2.208755358779854,,155
3,759.3113023768979,1.5,partner-social_feedback-affective,,,,156
0,764.0777116807236,0.7538649223579341,partner-social_choice-choice_pentagon,0.7538649223579341,,,157
1,769.0605537110388,1.5,partner-social_feedback-informative,,,62.0,158
2,772.5605103763683,1.293856972183221,partner-social_feedback-partner,,1.293856972183221,,159
3,778.5606632362187,1.5,partner-social_feedback-affective,,,,160
